File: data/#6 (35도_충전0.5C_방전1.5C)_충방전 싸이클_result.csv
,Cycle,Voltage(V),Current(A),Capacity(Ah),Power(W),wattHour(Wh),CELL1,CELL2,CELL3,CELL4,CELL5,CELL6,CELL7,CELL8,CELL9,CELL10,CELL11,CELL12,CELL13,CELL14,CELL15,CELL16,CELL17,CELL18,CELL19,CELL20,CELL21,CELL22,CELL23,CELL24
0,1,74.183,-166.797,-89.499,-12373.486,-7536.809,3.05,3.09,3.043,3.083,3.109,3.1,3.135,3.147,3.08,3.092,3.135,3.078,3.014,3.065,3.0,3.044,3.104,3.115,3.159,3.158,3.111,3.134,3.165,3.101
3,4,74.132,-166.812,-89.71,-12366.138,-7556.463,3.044,3.086,3.044,3.082,3.107,3.096,3.13,3.144,3.078,3.09,3.131,3.074,3.011,3.063,3.0,3.043,3.101,3.111,3.154,3.154,3.108,3.13,3.161,3.096
6,7,74.101,-166.812,-89.712,-12360.922,-7557.902,3.044,3.084,3.045,3.082,3.106,3.095,3.13,3.143,3.078,3.09,3.13,3.074,3.011,3.063,3.0,3.043,3.1,3.111,3.153,3.153,3.107,3.13,3.16,3.096
9,10,74.059,-166.789,-89.919,-12352.316,-7577.102,3.04,3.081,3.043,3.081,3.103,3.093,3.127,3.141,3.076,3.088,3.127,3.071,3.009,3.061,3.0,3.042,3.097,3.109,3.15,3.151,3.105,3.127,3.157,3.093
12,13,73.998,-166.787,-89.935,-12341.806,-7578.909,3.038,3.079,3.043,3.081,3.103,3.091,3.125,3.139,3.076,3.087,3.126,3.07,3.009,3.06,3.0,3.042,3.096,3.107,3.148,3.149,3.105,3.125,3.155,3.092
15,16,73.997,-166.807,-90.099,-12343.275,-7594.562,3.037,3.077,3.042,3.08,3.101,3.089,3.124,3.138,3.075,3.086,3.124,3.069,3.008,3.059,3.0,3.041,3.095,3.106,3.147,3.147,3.103,3.124,3.153,3.09
18,19,73.967,-166.799,-90.087,-12337.661,-7593.71,3.034,3.075,3.041,3.079,3.1,3.088,3.122,3.137,3.074,3.085,3.123,3.068,3.007,3.058,3.0,3.041,3.094,3.105,3.145,3.146,3.102,3.122,3.151,3.088
21,22,73.969,-166.811,-90.098,-12338.815,-7594.985,3.035,3.075,3.041,3.08,3.1,3.088,3.123,3.136,3.075,3.086,3.123,3.069,3.009,3.058,3.0,3.041,3.094,3.104,3.145,3.146,3.101,3.122,3.15,3.088
24,25,73.95,-166.784,-90.065,-12333.695,-7592.647,3.036,3.074,3.04,3.079,3.099,3.088,3.122,3.136,3.074,3.086,3.122,3.071,3.01,3.058,3.0,3.041,3.094,3.103,3.144,3.145,3.101,3.121,3.15,3.089
27,28,73.941,-166.795,-90.033,-12333.035,-7590.127,3.034,3.072,3.04,3.079,3.099,3.086,3.121,3.136,3.074,3.085,3.121,3.068,3.008,3.057,3.0,3.04,3.093,3.103,3.144,3.144,3.1,3.121,3.149,3.087
30,31,73.94,-166.805,-89.958,-12333.589,-7584.007,3.033,3.072,3.039,3.08,3.099,3.087,3.122,3.136,3.075,3.085,3.121,3.067,3.007,3.057,3.0,3.041,3.094,3.103,3.144,3.145,3.101,3.121,3.149,3.086
33,34,73.95,-166.833,-89.926,-12337.302,-7581.461,3.032,3.071,3.039,3.079,3.098,3.087,3.121,3.136,3.074,3.085,3.12,3.067,3.005,3.057,3.0,3.041,3.094,3.103,3.144,3.144,3.101,3.12,3.148,3.086
36,37,73.898,-166.792,-89.984,-12325.639,-7587.273,3.028,3.069,3.039,3.079,3.097,3.084,3.119,3.134,3.073,3.084,3.118,3.062,3.002,3.056,3.0,3.041,3.094,3.101,3.142,3.143,3.1,3.119,3.146,3.083
39,40,73.901,-166.811,-89.852,-12327.437,-7575.819,3.03,3.07,3.039,3.079,3.097,3.086,3.12,3.135,3.074,3.084,3.119,3.063,3.002,3.057,3.0,3.041,3.095,3.102,3.144,3.144,3.101,3.12,3.147,3.084
42,43,73.911,-166.798,-89.809,-12328.132,-7572.623,3.028,3.069,3.039,3.08,3.098,3.085,3.12,3.135,3.075,3.085,3.119,3.061,3.0,3.057,3.003,3.043,3.095,3.103,3.144,3.144,3.102,3.12,3.147,3.083
45,46,73.951,-166.827,-89.681,-12337.062,-7562.432,3.028,3.071,3.041,3.082,3.1,3.087,3.122,3.137,3.078,3.087,3.121,3.062,3.0,3.059,3.005,3.045,3.098,3.105,3.145,3.146,3.104,3.122,3.148,3.083
48,49,73.947,-166.763,-89.717,-12331.677,-7566.881,3.027,3.071,3.043,3.084,3.1,3.087,3.121,3.136,3.079,3.088,3.12,3.061,3.0,3.061,3.009,3.048,3.099,3.104,3.145,3.145,3.106,3.122,3.147,3.081
51,52,73.979,-166.776,-89.83,-12337.98,-7577.451,3.028,3.071,3.043,3.084,3.1,3.086,3.122,3.137,3.079,3.089,3.121,3.06,3.0,3.061,3.008,3.049,3.1,3.105,3.146,3.147,3.106,3.123,3.148,3.082
54,55,73.979,-166.81,-89.763,-12340.447,-7571.925,3.026,3.069,3.043,3.084,3.099,3.086,3.12,3.135,3.079,3.089,3.119,3.06,3.0,3.061,3.009,3.049,3.099,3.104,3.144,3.145,3.105,3.121,3.146,3.08
57,58,73.978,-166.799,-89.962,-12339.394,-7588.26,3.026,3.07,3.043,3.085,3.101,3.086,3.121,3.135,3.079,3.088,3.12,3.06,3.0,3.06,3.009,3.049,3.097,3.104,3.143,3.145,3.105,3.122,3.146,3.08
60,61,73.937,-166.802,-89.781,-12332.905,-7572.256,3.024,3.069,3.042,3.083,3.099,3.084,3.118,3.134,3.078,3.087,3.118,3.059,3.0,3.059,3.008,3.049,3.097,3.102,3.142,3.143,3.103,3.12,3.144,3.078
63,64,73.925,-166.833,-89.736,-12333.189,-7568.738,3.025,3.068,3.041,3.083,3.099,3.083,3.118,3.133,3.078,3.087,3.118,3.059,3.0,3.06,3.008,3.049,3.098,3.102,3.142,3.143,3.103,3.119,3.143,3.079
66,67,73.924,-166.802,-89.799,-12330.718,-7575.633,3.024,3.067,3.041,3.083,3.098,3.081,3.117,3.132,3.078,3.087,3.117,3.058,3.0,3.061,3.009,3.05,3.099,3.101,3.141,3.142,3.103,3.119,3.142,3.077
69,70,73.934,-166.782,-89.741,-12330.954,-7570.323,3.025,3.067,3.041,3.083,3.097,3.081,3.116,3.133,3.079,3.087,3.118,3.059,3.0,3.061,3.009,3.05,3.099,3.101,3.141,3.142,3.103,3.118,3.142,3.078
72,73,73.904,-166.809,-89.843,-12327.841,-7580.538,3.024,3.066,3.042,3.084,3.097,3.08,3.116,3.132,3.079,3.087,3.117,3.058,3.0,3.062,3.01,3.051,3.1,3.1,3.14,3.141,3.103,3.118,3.141,3.077
75,76,73.893,-166.817,-89.76,-12326.621,-7572.091,3.025,3.066,3.041,3.083,3.096,3.08,3.115,3.132,3.078,3.087,3.116,3.059,3.0,3.062,3.009,3.05,3.1,3.099,3.14,3.141,3.103,3.118,3.14,3.078
78,79,73.895,-166.777,-89.781,-12323.961,-7573.783,3.025,3.064,3.039,3.081,3.095,3.078,3.114,3.13,3.078,3.085,3.116,3.06,3.0,3.061,3.006,3.048,3.098,3.097,3.139,3.139,3.102,3.116,3.139,3.08
81,82,73.895,-166.81,-89.901,-12326.379,-7584.85,3.026,3.065,3.041,3.082,3.096,3.079,3.115,3.131,3.079,3.087,3.117,3.06,3.0,3.063,3.008,3.05,3.1,3.099,3.14,3.14,3.103,3.117,3.14,3.08
84,85,73.937,-166.77,-89.822,-12330.566,-7579.521,3.024,3.066,3.042,3.084,3.097,3.08,3.116,3.132,3.081,3.088,3.118,3.058,3.0,3.064,3.011,3.052,3.103,3.101,3.142,3.142,3.105,3.119,3.141,3.079
87,88,73.907,-166.794,-89.766,-12327.178,-7574.06,3.023,3.065,3.041,3.084,3.096,3.079,3.116,3.132,3.081,3.088,3.117,3.058,3.0,3.064,3.011,3.052,3.102,3.1,3.142,3.141,3.105,3.118,3.14,3.079
90,91,73.896,-166.76,-89.736,-12322.865,-7571.124,3.024,3.065,3.041,3.083,3.096,3.079,3.116,3.132,3.08,3.087,3.117,3.059,3.0,3.064,3.01,3.051,3.103,3.1,3.142,3.141,3.104,3.118,3.14,3.079
93,94,74.152,-166.798,-89.608,-12368.345,-7559.541,3.019,3.08,3.055,3.095,3.111,3.094,3.128,3.143,3.09,3.097,3.126,3.054,3.0,3.068,3.027,3.064,3.109,3.116,3.153,3.154,3.116,3.132,3.153,3.079
96,97,74.161,-166.809,-89.243,-12370.787,-7527.715,3.021,3.08,3.057,3.096,3.111,3.094,3.128,3.143,3.091,3.098,3.125,3.053,3.0,3.068,3.027,3.065,3.109,3.116,3.153,3.154,3.117,3.132,3.153,3.08
99,100,74.171,-166.791,-89.129,-12371.109,-7517.845,3.022,3.08,3.058,3.098,3.113,3.095,3.129,3.144,3.093,3.1,3.127,3.054,3.0,3.069,3.029,3.067,3.111,3.117,3.154,3.155,3.118,3.133,3.153,3.081
102,103,74.16,-166.787,-89.081,-12368.92,-7512.995,3.018,3.079,3.058,3.098,3.112,3.094,3.128,3.143,3.093,3.099,3.126,3.052,3.0,3.069,3.03,3.067,3.11,3.116,3.153,3.154,3.117,3.131,3.152,3.077
105,106,74.15,-166.799,-89.062,-12368.078,-7511.339,3.014,3.077,3.057,3.097,3.111,3.093,3.127,3.142,3.092,3.098,3.124,3.048,3.0,3.068,3.03,3.067,3.111,3.116,3.152,3.154,3.117,3.131,3.151,3.074
108,109,74.179,-166.808,-88.911,-12373.669,-7499.582,3.015,3.079,3.059,3.099,3.113,3.095,3.129,3.144,3.094,3.1,3.126,3.049,3.0,3.07,3.032,3.07,3.112,3.117,3.154,3.155,3.119,3.133,3.152,3.075
111,112,74.19,-166.815,-88.756,-12375.967,-7485.635,3.012,3.08,3.06,3.101,3.114,3.095,3.128,3.144,3.095,3.101,3.126,3.045,3.0,3.071,3.035,3.072,3.114,3.119,3.154,3.156,3.12,3.133,3.152,3.073
114,115,74.292,-166.803,-88.471,-12392.115,-7463.617,3.015,3.083,3.065,3.104,3.117,3.098,3.13,3.146,3.098,3.104,3.128,3.043,3.0,3.075,3.04,3.076,3.118,3.123,3.158,3.159,3.124,3.137,3.155,3.077
117,118,73.822,-166.793,-89.362,-12313.045,-7529.845,3.023,3.061,3.036,3.081,3.094,3.079,3.112,3.128,3.074,3.082,3.112,3.052,3.0,3.05,3.007,3.046,3.092,3.1,3.138,3.138,3.1,3.115,3.139,3.081
120,121,73.77,-166.82,-90.531,-12306.251,-7635.556,3.031,3.058,3.033,3.077,3.09,3.074,3.109,3.125,3.072,3.08,3.111,3.06,3.001,3.046,3.0,3.039,3.086,3.093,3.133,3.134,3.097,3.111,3.137,3.086
123,124,73.749,-166.833,-90.198,-12303.817,-7604.497,3.029,3.059,3.033,3.077,3.091,3.076,3.11,3.125,3.072,3.079,3.112,3.059,3.002,3.046,3.0,3.039,3.086,3.095,3.135,3.135,3.097,3.112,3.138,3.086
126,127,73.729,-166.824,-90.397,-12299.706,-7622.574,3.027,3.057,3.032,3.076,3.09,3.074,3.108,3.124,3.071,3.079,3.11,3.059,3.001,3.045,3.0,3.039,3.086,3.093,3.133,3.133,3.096,3.111,3.137,3.084
129,130,73.76,-166.839,-90.323,-12306.048,-7615.18,3.027,3.058,3.032,3.076,3.09,3.075,3.11,3.125,3.071,3.079,3.111,3.061,3.004,3.046,3.0,3.039,3.086,3.095,3.134,3.134,3.096,3.111,3.137,3.084
132,133,73.719,-166.792,-90.36,-12295.65,-7618.462,3.024,3.056,3.031,3.075,3.089,3.074,3.108,3.124,3.07,3.078,3.11,3.059,3.003,3.045,3.0,3.038,3.085,3.093,3.132,3.133,3.095,3.11,3.135,3.081
135,136,73.739,-166.795,-90.234,-12299.283,-7606.448,3.024,3.057,3.031,3.075,3.089,3.074,3.108,3.124,3.07,3.078,3.111,3.061,3.004,3.045,3.0,3.038,3.085,3.093,3.133,3.133,3.095,3.109,3.135,3.081
138,139,73.718,-166.806,-90.174,-12296.624,-7600.897,3.023,3.055,3.03,3.075,3.088,3.073,3.107,3.123,3.07,3.077,3.11,3.06,3.004,3.044,3.0,3.038,3.084,3.092,3.131,3.132,3.093,3.108,3.134,3.078
141,142,73.731,-166.809,-90.61,-12299.05,-7639.843,3.023,3.057,3.031,3.075,3.089,3.074,3.109,3.124,3.07,3.078,3.11,3.061,3.005,3.045,3.0,3.037,3.084,3.093,3.132,3.132,3.093,3.109,3.135,3.078
144,145,73.731,-166.803,-90.366,-12298.495,-7617.589,3.023,3.057,3.031,3.074,3.089,3.074,3.108,3.123,3.07,3.078,3.111,3.061,3.006,3.044,3.0,3.037,3.084,3.095,3.133,3.133,3.094,3.11,3.136,3.081
147,148,73.703,-166.816,-90.333,-12294.934,-7613.63,3.026,3.058,3.031,3.074,3.089,3.074,3.109,3.124,3.07,3.078,3.112,3.063,3.007,3.044,3.0,3.036,3.084,3.095,3.134,3.134,3.094,3.11,3.137,3.083
150,151,73.714,-166.78,-90.295,-12294.118,-7610.153,3.023,3.057,3.031,3.074,3.089,3.074,3.109,3.124,3.07,3.077,3.111,3.062,3.006,3.044,3.0,3.036,3.084,3.095,3.133,3.133,3.094,3.11,3.136,3.081
153,154,73.703,-166.802,-90.429,-12293.781,-7621.907,3.019,3.056,3.03,3.074,3.089,3.073,3.108,3.123,3.069,3.077,3.11,3.058,3.003,3.043,3.0,3.036,3.084,3.095,3.133,3.133,3.094,3.11,3.135,3.077
156,157,73.702,-166.777,-90.368,-12291.767,-7616.822,3.018,3.056,3.03,3.074,3.089,3.074,3.108,3.123,3.07,3.077,3.11,3.057,3.002,3.043,3.0,3.036,3.084,3.095,3.134,3.134,3.094,3.11,3.136,3.077
159,160,73.668,-166.788,-90.345,-12286.98,-7614.005,3.016,3.055,3.03,3.073,3.088,3.072,3.107,3.123,3.069,3.076,3.109,3.055,3.0,3.042,3.0,3.037,3.083,3.094,3.132,3.133,3.093,3.109,3.134,3.075
162,163,73.679,-166.799,-90.325,-12289.542,-7612.69,3.018,3.056,3.03,3.074,3.089,3.074,3.108,3.123,3.07,3.077,3.11,3.056,3.002,3.043,3.0,3.037,3.084,3.096,3.134,3.134,3.095,3.11,3.136,3.077
165,166,73.712,-166.779,-90.189,-12293.561,-7599.465,3.019,3.058,3.031,3.074,3.09,3.075,3.109,3.124,3.071,3.078,3.11,3.057,3.002,3.043,3.0,3.036,3.085,3.097,3.135,3.135,3.095,3.111,3.136,3.078
168,169,73.731,-166.832,-90.228,-12300.62,-7603.583,3.017,3.057,3.031,3.074,3.09,3.074,3.108,3.123,3.07,3.077,3.11,3.055,3.0,3.042,3.001,3.037,3.084,3.096,3.134,3.135,3.094,3.111,3.136,3.076
171,172,73.723,-166.819,-90.087,-12298.474,-7589.626,3.019,3.058,3.031,3.074,3.09,3.075,3.11,3.124,3.071,3.077,3.111,3.057,3.001,3.042,3.0,3.036,3.084,3.098,3.135,3.136,3.094,3.111,3.137,3.078
174,175,73.743,-166.812,-90.102,-12301.145,-7592.334,3.019,3.059,3.032,3.075,3.091,3.076,3.11,3.125,3.072,3.078,3.111,3.057,3.0,3.043,3.001,3.037,3.085,3.099,3.136,3.136,3.095,3.112,3.137,3.078
177,178,73.777,-166.806,-90.031,-12306.372,-7584.661,3.021,3.059,3.031,3.074,3.091,3.076,3.111,3.125,3.072,3.078,3.112,3.059,3.001,3.042,3.0,3.036,3.084,3.099,3.136,3.136,3.094,3.112,3.138,3.08
180,181,73.725,-166.809,-89.595,-12297.886,-7545.079,3.023,3.06,3.032,3.073,3.091,3.075,3.11,3.124,3.071,3.077,3.11,3.059,3.0,3.042,3.0,3.036,3.084,3.097,3.135,3.136,3.095,3.111,3.138,3.08
183,184,73.827,-166.806,-89.896,-12314.843,-7573.727,3.022,3.062,3.035,3.077,3.094,3.079,3.113,3.126,3.075,3.081,3.113,3.059,3.0,3.044,3.003,3.039,3.087,3.101,3.138,3.138,3.097,3.114,3.14,3.081
186,187,73.877,-166.795,-89.83,-12322.267,-7568.435,3.022,3.063,3.037,3.079,3.095,3.081,3.114,3.128,3.077,3.082,3.113,3.058,3.0,3.046,3.005,3.042,3.089,3.102,3.139,3.14,3.099,3.115,3.141,3.082
189,190,73.815,-166.78,-89.755,-12310.852,-7561.52,3.022,3.065,3.038,3.08,3.096,3.082,3.115,3.128,3.077,3.083,3.114,3.058,3.0,3.046,3.007,3.043,3.089,3.103,3.139,3.14,3.099,3.116,3.142,3.082
192,193,73.845,-166.848,-89.772,-12320.886,-7562.858,3.022,3.063,3.038,3.08,3.095,3.081,3.114,3.128,3.077,3.083,3.114,3.058,3.0,3.047,3.006,3.043,3.089,3.103,3.139,3.14,3.099,3.116,3.141,3.081
195,196,73.777,-166.795,-89.966,-12305.555,-7575.267,3.02,3.064,3.036,3.077,3.094,3.082,3.115,3.127,3.074,3.079,3.112,3.058,3.0,3.044,3.004,3.039,3.085,3.103,3.138,3.139,3.096,3.114,3.141,3.078
198,199,73.785,-166.786,-90.013,-12306.391,-7579.744,3.017,3.063,3.035,3.077,3.093,3.081,3.114,3.125,3.073,3.079,3.111,3.056,3.0,3.044,3.005,3.04,3.085,3.102,3.137,3.138,3.095,3.113,3.14,3.077
201,202,73.807,-166.802,-89.896,-12311.238,-7568.496,3.018,3.063,3.035,3.076,3.093,3.082,3.115,3.126,3.073,3.08,3.111,3.057,3.0,3.043,3.004,3.039,3.085,3.102,3.137,3.139,3.096,3.114,3.141,3.078
204,205,73.837,-166.814,-89.941,-12317.1,-7573.778,3.019,3.063,3.037,3.078,3.095,3.082,3.114,3.126,3.075,3.081,3.111,3.057,3.0,3.045,3.007,3.042,3.085,3.103,3.137,3.139,3.096,3.115,3.142,3.08
207,208,73.818,-166.796,-89.837,-12312.533,-7563.192,3.019,3.063,3.036,3.077,3.094,3.083,3.115,3.127,3.074,3.08,3.112,3.058,3.0,3.044,3.005,3.04,3.085,3.104,3.138,3.139,3.097,3.115,3.142,3.08
210,211,73.818,-166.782,-89.79,-12311.526,-7559.469,3.019,3.063,3.037,3.078,3.095,3.083,3.115,3.127,3.075,3.08,3.112,3.057,3.0,3.045,3.007,3.042,3.086,3.104,3.138,3.14,3.097,3.115,3.142,3.08
213,214,73.801,-166.783,-89.703,-12308.726,-7550.6,3.018,3.063,3.036,3.077,3.095,3.083,3.116,3.127,3.074,3.08,3.112,3.057,3.0,3.045,3.006,3.041,3.085,3.104,3.139,3.139,3.096,3.115,3.142,3.08
216,217,73.828,-166.843,-89.709,-12317.693,-7550.95,3.017,3.063,3.036,3.077,3.094,3.083,3.115,3.127,3.074,3.08,3.111,3.056,3.0,3.045,3.006,3.041,3.086,3.104,3.138,3.139,3.096,3.115,3.142,3.079
219,220,73.811,-166.773,-89.534,-12309.651,-7535.741,3.018,3.064,3.038,3.078,3.095,3.084,3.117,3.128,3.076,3.081,3.113,3.057,3.0,3.046,3.007,3.042,3.087,3.106,3.14,3.141,3.098,3.116,3.143,3.08
222,223,73.82,-166.794,-89.533,-12312.779,-7534.944,3.017,3.063,3.038,3.078,3.095,3.084,3.116,3.128,3.076,3.081,3.112,3.057,3.0,3.046,3.008,3.042,3.087,3.105,3.139,3.14,3.097,3.116,3.143,3.079
225,226,73.813,-166.823,-89.509,-12313.684,-7533.31,3.018,3.062,3.035,3.077,3.094,3.084,3.116,3.127,3.074,3.079,3.112,3.057,3.0,3.045,3.005,3.04,3.086,3.105,3.138,3.139,3.095,3.114,3.142,3.078
228,229,73.825,-166.833,-89.506,-12316.42,-7532.617,3.017,3.062,3.036,3.077,3.094,3.085,3.117,3.127,3.074,3.079,3.112,3.058,3.0,3.045,3.005,3.04,3.085,3.104,3.138,3.139,3.095,3.114,3.142,3.077
231,232,73.846,-166.765,-89.346,-12314.994,-7519.949,3.016,3.065,3.038,3.079,3.097,3.086,3.119,3.129,3.077,3.082,3.114,3.058,3.0,3.047,3.007,3.043,3.087,3.107,3.14,3.141,3.097,3.116,3.143,3.077
234,235,73.752,-166.794,-89.428,-12301.323,-7524.756,3.019,3.061,3.034,3.076,3.093,3.084,3.116,3.126,3.073,3.078,3.112,3.06,3.0,3.043,3.002,3.037,3.082,3.102,3.136,3.136,3.092,3.111,3.139,3.075
237,238,73.699,-166.79,-89.622,-12292.293,-7540.345,3.015,3.058,3.032,3.073,3.09,3.081,3.113,3.123,3.07,3.077,3.109,3.06,3.002,3.042,3.0,3.036,3.08,3.1,3.133,3.134,3.09,3.109,3.138,3.076
240,241,73.718,-166.791,-89.729,-12295.433,-7549.998,3.019,3.056,3.031,3.074,3.09,3.081,3.112,3.123,3.072,3.077,3.11,3.064,3.004,3.042,3.0,3.036,3.079,3.099,3.132,3.134,3.089,3.109,3.138,3.078
243,244,73.737,-166.802,-89.731,-12299.501,-7549.74,3.021,3.057,3.032,3.074,3.09,3.081,3.113,3.123,3.072,3.078,3.111,3.066,3.004,3.042,3.0,3.036,3.079,3.099,3.132,3.134,3.089,3.109,3.138,3.079
246,247,73.737,-166.801,-89.653,-12299.449,-7542.735,3.022,3.057,3.032,3.074,3.09,3.08,3.113,3.123,3.072,3.078,3.111,3.066,3.005,3.042,3.0,3.036,3.08,3.098,3.132,3.134,3.09,3.109,3.138,3.079
249,250,73.716,-166.78,-89.484,-12294.381,-7527.008,3.023,3.058,3.032,3.074,3.09,3.081,3.113,3.123,3.072,3.078,3.112,3.068,3.005,3.042,3.0,3.036,3.079,3.099,3.132,3.133,3.09,3.109,3.138,3.079
252,253,73.766,-166.797,-89.419,-12303.931,-7520.967,3.022,3.057,3.033,3.074,3.09,3.081,3.113,3.123,3.072,3.078,3.111,3.068,3.006,3.043,3.0,3.036,3.079,3.098,3.132,3.133,3.09,3.109,3.137,3.079
255,256,73.716,-166.782,-89.338,-12294.548,-7513.317,3.021,3.057,3.032,3.074,3.09,3.08,3.112,3.123,3.072,3.078,3.111,3.067,3.005,3.042,3.0,3.036,3.079,3.098,3.132,3.133,3.09,3.109,3.137,3.079
258,259,73.737,-166.782,-89.384,-12297.965,-7517.76,3.02,3.056,3.032,3.074,3.09,3.08,3.112,3.122,3.072,3.077,3.11,3.066,3.004,3.042,3.0,3.036,3.079,3.097,3.131,3.133,3.089,3.108,3.136,3.078
261,262,73.726,-166.803,-89.464,-12297.719,-7524.282,3.021,3.056,3.032,3.075,3.089,3.079,3.111,3.122,3.071,3.077,3.11,3.066,3.004,3.042,3.0,3.036,3.078,3.098,3.131,3.133,3.089,3.108,3.137,3.078
264,265,73.706,-166.804,-89.507,-12294.534,-7527.99,3.022,3.056,3.031,3.074,3.09,3.08,3.112,3.122,3.072,3.078,3.111,3.067,3.005,3.042,3.0,3.036,3.079,3.098,3.131,3.133,3.089,3.108,3.137,3.078
267,268,73.727,-166.784,-89.483,-12296.507,-7525.416,3.024,3.056,3.032,3.074,3.09,3.08,3.112,3.122,3.072,3.078,3.111,3.069,3.006,3.043,3.0,3.036,3.079,3.098,3.131,3.133,3.089,3.109,3.137,3.079
270,271,73.748,-166.769,-89.293,-12298.855,-7507.909,3.026,3.057,3.032,3.075,3.09,3.081,3.113,3.123,3.072,3.078,3.112,3.072,3.008,3.042,3.0,3.036,3.079,3.098,3.131,3.133,3.089,3.108,3.137,3.08
273,274,73.636,-166.795,-89.069,-12282.113,-7484.704,3.017,3.051,3.031,3.073,3.087,3.075,3.106,3.118,3.069,3.075,3.107,3.063,3.0,3.04,3.001,3.036,3.075,3.092,3.125,3.129,3.086,3.105,3.132,3.072
276,277,73.84,-166.799,-89.382,-12316.453,-7518.366,3.023,3.067,3.044,3.082,3.098,3.084,3.116,3.128,3.079,3.084,3.115,3.057,3.0,3.049,3.012,3.048,3.088,3.106,3.138,3.142,3.099,3.118,3.144,3.078
279,280,73.739,-166.817,-89.639,-12300.873,-7538.789,3.021,3.061,3.037,3.077,3.091,3.077,3.11,3.123,3.073,3.078,3.11,3.056,3.0,3.044,3.005,3.041,3.082,3.101,3.133,3.136,3.093,3.112,3.139,3.077
282,283,73.71,-166.779,-89.514,-12293.191,-7525.37,3.019,3.056,3.032,3.073,3.087,3.074,3.106,3.12,3.069,3.075,3.108,3.057,3.0,3.041,3.001,3.037,3.078,3.097,3.13,3.133,3.089,3.109,3.137,3.076
285,286,73.689,-166.833,-89.013,-12293.723,-7481.642,3.02,3.059,3.036,3.076,3.091,3.078,3.111,3.123,3.073,3.079,3.11,3.058,3.0,3.044,3.004,3.041,3.081,3.1,3.132,3.136,3.093,3.112,3.139,3.076
288,289,73.782,-166.765,-89.584,-12304.221,-7534.672,3.02,3.061,3.038,3.078,3.093,3.08,3.112,3.125,3.075,3.08,3.112,3.057,3.0,3.046,3.007,3.043,3.083,3.102,3.134,3.138,3.094,3.113,3.14,3.076
291,292,73.842,-166.846,-89.35,-12320.306,-7514.87,3.02,3.063,3.041,3.081,3.095,3.082,3.114,3.127,3.078,3.083,3.114,3.055,3.0,3.048,3.012,3.047,3.086,3.105,3.137,3.14,3.097,3.117,3.143,3.076
294,295,73.806,-166.822,-89.417,-12312.44,-7519.893,3.025,3.067,3.042,3.081,3.095,3.084,3.115,3.125,3.077,3.082,3.113,3.058,3.0,3.047,3.01,3.046,3.084,3.104,3.135,3.138,3.096,3.115,3.142,3.078
297,298,73.802,-166.801,-89.465,-12310.215,-7522.746,3.025,3.066,3.042,3.08,3.095,3.084,3.116,3.126,3.077,3.082,3.113,3.058,3.0,3.047,3.009,3.045,3.084,3.104,3.135,3.138,3.096,3.115,3.142,3.079
300,301,73.783,-166.797,-89.562,-12306.794,-7529.524,3.022,3.063,3.039,3.077,3.093,3.081,3.113,3.124,3.074,3.08,3.111,3.057,3.0,3.044,3.006,3.042,3.081,3.102,3.134,3.137,3.093,3.113,3.14,3.077
303,304,73.752,-166.808,-89.463,-12302.405,-7519.866,3.02,3.062,3.038,3.077,3.091,3.08,3.112,3.123,3.073,3.078,3.11,3.056,3.0,3.044,3.006,3.041,3.081,3.102,3.133,3.136,3.093,3.112,3.14,3.077
306,307,73.721,-166.817,-89.598,-12297.804,-7532.158,3.019,3.06,3.037,3.077,3.09,3.079,3.11,3.122,3.073,3.078,3.109,3.055,3.0,3.043,3.006,3.042,3.08,3.101,3.132,3.135,3.092,3.112,3.139,3.076
309,310,73.779,-166.782,-89.547,-12305.103,-7527.342,3.019,3.059,3.037,3.077,3.091,3.079,3.11,3.122,3.073,3.078,3.109,3.055,3.0,3.044,3.006,3.042,3.079,3.101,3.132,3.135,3.092,3.111,3.139,3.075
312,313,73.77,-166.821,-89.507,-12306.473,-7523.452,3.019,3.059,3.037,3.077,3.091,3.079,3.11,3.122,3.073,3.078,3.109,3.055,3.0,3.043,3.006,3.042,3.079,3.102,3.131,3.135,3.092,3.111,3.139,3.076
315,316,73.729,-166.783,-89.474,-12296.739,-7520.352,3.016,3.059,3.037,3.077,3.09,3.079,3.11,3.122,3.073,3.078,3.109,3.053,3.0,3.044,3.007,3.043,3.079,3.101,3.131,3.135,3.092,3.111,3.139,3.074
318,319,73.709,-166.823,-89.408,-12296.288,-7513.595,3.016,3.058,3.036,3.076,3.089,3.079,3.109,3.122,3.072,3.077,3.108,3.054,3.0,3.043,3.005,3.041,3.078,3.101,3.13,3.135,3.091,3.11,3.138,3.074
321,322,73.687,-166.792,-89.453,-12290.431,-7517.659,3.014,3.057,3.036,3.076,3.089,3.077,3.108,3.121,3.072,3.077,3.108,3.053,3.0,3.043,3.006,3.042,3.078,3.1,3.129,3.134,3.09,3.11,3.137,3.072
324,325,73.707,-166.829,-89.373,-12296.514,-7510.485,3.013,3.058,3.037,3.076,3.089,3.078,3.109,3.122,3.073,3.078,3.109,3.053,3.0,3.044,3.007,3.043,3.079,3.101,3.13,3.134,3.091,3.11,3.138,3.072
327,328,73.696,-166.81,-89.391,-12293.257,-7511.924,3.013,3.056,3.036,3.076,3.089,3.077,3.108,3.12,3.072,3.077,3.107,3.053,3.0,3.043,3.007,3.043,3.078,3.1,3.128,3.133,3.09,3.109,3.136,3.071
330,331,73.728,-166.842,-89.35,-12300.984,-7507.373,3.013,3.056,3.035,3.075,3.088,3.077,3.107,3.12,3.071,3.076,3.108,3.053,3.0,3.043,3.005,3.04,3.077,3.099,3.128,3.133,3.089,3.108,3.136,3.071
333,334,73.676,-166.782,-89.364,-12287.838,-7508.201,3.013,3.054,3.034,3.075,3.087,3.075,3.107,3.119,3.071,3.075,3.107,3.053,3.0,3.042,3.005,3.041,3.076,3.099,3.126,3.132,3.088,3.107,3.135,3.071
336,337,73.667,-166.797,-89.373,-12287.43,-7508.401,3.014,3.054,3.033,3.073,3.086,3.076,3.107,3.119,3.07,3.074,3.107,3.054,3.0,3.041,3.002,3.039,3.075,3.098,3.127,3.132,3.087,3.107,3.136,3.072
339,340,73.667,-166.808,-89.371,-12288.234,-7508.213,3.014,3.054,3.033,3.074,3.087,3.076,3.106,3.119,3.07,3.075,3.107,3.055,3.0,3.041,3.003,3.039,3.075,3.098,3.126,3.131,3.087,3.107,3.135,3.072
342,343,73.72,-166.824,-89.305,-12298.238,-7501.785,3.015,3.055,3.034,3.074,3.087,3.077,3.107,3.119,3.071,3.075,3.107,3.054,3.0,3.041,3.003,3.039,3.075,3.099,3.127,3.132,3.088,3.107,3.136,3.072
345,346,73.668,-166.819,-89.301,-12289.156,-7501.335,3.016,3.055,3.034,3.074,3.087,3.077,3.107,3.119,3.07,3.074,3.107,3.055,3.0,3.041,3.002,3.039,3.074,3.098,3.126,3.131,3.087,3.107,3.135,3.072
348,349,73.61,-166.793,-89.298,-12277.599,-7500.485,3.016,3.054,3.033,3.073,3.086,3.077,3.106,3.118,3.07,3.074,3.107,3.057,3.0,3.04,3.001,3.037,3.073,3.097,3.125,3.13,3.085,3.106,3.134,3.071
351,352,73.629,-166.793,-89.246,-12280.769,-7495.536,3.016,3.054,3.032,3.072,3.086,3.076,3.106,3.118,3.07,3.073,3.107,3.057,3.0,3.04,3.0,3.037,3.072,3.097,3.125,3.13,3.085,3.105,3.134,3.071
354,355,73.657,-166.77,-89.187,-12283.839,-7489.559,3.02,3.054,3.032,3.072,3.085,3.076,3.106,3.118,3.07,3.074,3.108,3.062,3.004,3.04,3.0,3.037,3.072,3.096,3.124,3.129,3.085,3.105,3.134,3.074
357,358,73.606,-166.84,-88.78,-12280.432,-7448.484,3.009,3.05,3.042,3.08,3.086,3.068,3.096,3.114,3.073,3.077,3.102,3.051,3.0,3.044,3.016,3.049,3.073,3.088,3.115,3.125,3.086,3.103,3.128,3.064
360,361,73.596,-166.786,-88.842,-12274.721,-7451.01,3.0,3.048,3.053,3.09,3.088,3.061,3.085,3.11,3.079,3.083,3.097,3.042,3.0,3.052,3.034,3.064,3.077,3.08,3.105,3.12,3.089,3.102,3.12,3.053
363,364,73.626,-166.804,-88.832,-12281.104,-7450.049,3.0,3.048,3.06,3.097,3.091,3.058,3.08,3.111,3.083,3.088,3.096,3.041,3.004,3.058,3.045,3.073,3.08,3.079,3.1,3.118,3.092,3.104,3.117,3.049
366,367,73.595,-166.779,-89.206,-12274.19,-7489.95,3.019,3.052,3.032,3.071,3.085,3.075,3.105,3.117,3.069,3.074,3.107,3.061,3.002,3.038,3.0,3.035,3.071,3.094,3.123,3.128,3.083,3.104,3.133,3.071
369,370,73.596,-166.803,-88.764,-12275.998,-7447.702,3.015,3.051,3.034,3.072,3.084,3.071,3.101,3.115,3.069,3.073,3.104,3.058,3.0,3.039,3.004,3.038,3.07,3.092,3.12,3.126,3.083,3.103,3.131,3.068
372,373,73.566,-166.78,-88.669,-12269.283,-7435.701,3.008,3.049,3.046,3.083,3.087,3.065,3.091,3.112,3.074,3.079,3.099,3.05,3.0,3.046,3.023,3.053,3.073,3.084,3.111,3.122,3.086,3.102,3.124,3.059
375,376,73.547,-166.801,-88.774,-12267.654,-7442.471,3.003,3.045,3.052,3.089,3.087,3.058,3.082,3.108,3.077,3.082,3.095,3.044,3.0,3.051,3.033,3.062,3.074,3.078,3.102,3.118,3.087,3.101,3.118,3.052
378,379,73.545,-166.794,-88.848,-12266.919,-7449.013,3.0,3.043,3.056,3.094,3.088,3.054,3.076,3.107,3.08,3.085,3.092,3.041,3.001,3.055,3.042,3.069,3.076,3.075,3.096,3.115,3.088,3.1,3.114,3.047
381,382,73.567,-166.786,-88.835,-12269.978,-7448.365,3.0,3.045,3.06,3.097,3.09,3.055,3.075,3.108,3.082,3.087,3.093,3.041,3.003,3.058,3.046,3.073,3.078,3.074,3.095,3.115,3.089,3.101,3.113,3.046
384,385,73.618,-166.847,-88.767,-12282.976,-7441.54,3.0,3.045,3.058,3.096,3.089,3.056,3.076,3.107,3.081,3.086,3.093,3.041,3.002,3.057,3.044,3.071,3.077,3.075,3.097,3.115,3.089,3.101,3.114,3.046
387,388,73.598,-166.809,-88.844,-12276.808,-7448.567,3.0,3.044,3.059,3.096,3.089,3.054,3.075,3.107,3.081,3.087,3.092,3.041,3.003,3.057,3.044,3.072,3.077,3.074,3.095,3.114,3.088,3.1,3.113,3.046
390,391,73.607,-166.78,-88.81,-12276.164,-7447.235,3.0,3.044,3.061,3.099,3.09,3.053,3.072,3.107,3.082,3.088,3.092,3.04,3.006,3.059,3.048,3.076,3.078,3.073,3.092,3.114,3.089,3.1,3.112,3.044
393,394,73.607,-166.813,-88.723,-12278.567,-7439.994,3.0,3.044,3.062,3.1,3.09,3.052,3.071,3.107,3.082,3.088,3.091,3.039,3.007,3.06,3.049,3.076,3.078,3.073,3.091,3.112,3.089,3.1,3.111,3.043
396,397,73.834,-166.796,-88.832,-12315.218,-7458.662,3.022,3.067,3.046,3.081,3.095,3.08,3.11,3.123,3.077,3.083,3.111,3.052,3.0,3.047,3.014,3.048,3.082,3.105,3.131,3.137,3.094,3.115,3.14,3.073
399,400,73.813,-166.799,-88.802,-12311.879,-7456.564,3.023,3.067,3.047,3.083,3.096,3.082,3.111,3.124,3.079,3.083,3.112,3.054,3.0,3.048,3.015,3.049,3.082,3.104,3.131,3.137,3.095,3.116,3.142,3.075
402,403,73.833,-166.816,-88.766,-12316.532,-7453.835,3.025,3.068,3.047,3.084,3.096,3.082,3.112,3.125,3.079,3.084,3.112,3.055,3.0,3.048,3.015,3.05,3.082,3.105,3.131,3.137,3.096,3.115,3.142,3.075
405,406,73.823,-166.796,-88.669,-12313.313,-7445.487,3.023,3.068,3.048,3.084,3.097,3.083,3.112,3.125,3.08,3.083,3.113,3.054,3.0,3.049,3.016,3.051,3.083,3.106,3.132,3.138,3.096,3.116,3.143,3.074
408,409,73.823,-166.798,-88.632,-12313.569,-7442.603,3.022,3.067,3.046,3.083,3.096,3.083,3.111,3.125,3.078,3.083,3.113,3.054,3.0,3.048,3.015,3.05,3.081,3.106,3.131,3.138,3.095,3.115,3.142,3.074
411,412,73.825,-166.78,-88.639,-12312.535,-7442.282,3.022,3.067,3.046,3.083,3.096,3.083,3.111,3.125,3.079,3.083,3.112,3.055,3.0,3.048,3.014,3.05,3.08,3.106,3.131,3.137,3.095,3.115,3.142,3.074
414,415,73.732,-166.804,-88.801,-12298.873,-7453.426,3.018,3.061,3.041,3.077,3.092,3.078,3.107,3.12,3.073,3.077,3.109,3.051,3.0,3.044,3.009,3.045,3.075,3.102,3.127,3.133,3.09,3.11,3.138,3.07
417,418,73.702,-166.776,-88.846,-12291.653,-7456.103,3.018,3.06,3.039,3.077,3.091,3.077,3.106,3.12,3.071,3.076,3.107,3.05,3.0,3.043,3.008,3.044,3.075,3.101,3.126,3.133,3.088,3.109,3.137,3.07
420,421,73.65,-166.801,-88.749,-12284.991,-7445.784,3.017,3.058,3.037,3.075,3.088,3.075,3.104,3.118,3.069,3.074,3.106,3.05,3.0,3.042,3.005,3.042,3.073,3.099,3.125,3.131,3.087,3.108,3.136,3.07
423,424,73.671,-166.792,-88.627,-12287.767,-7433.687,3.016,3.057,3.036,3.074,3.088,3.075,3.103,3.117,3.069,3.073,3.106,3.051,3.0,3.041,3.005,3.042,3.072,3.1,3.125,3.131,3.086,3.107,3.136,3.071
426,427,73.661,-166.76,-88.43,-12283.654,-7415.428,3.016,3.057,3.036,3.074,3.089,3.075,3.104,3.118,3.07,3.074,3.106,3.05,3.0,3.042,3.005,3.041,3.072,3.1,3.125,3.131,3.086,3.107,3.136,3.07
429,430,73.641,-166.832,-88.513,-12285.716,-7422.946,3.016,3.057,3.036,3.073,3.089,3.076,3.104,3.117,3.069,3.073,3.106,3.052,3.0,3.041,3.004,3.041,3.071,3.099,3.125,3.131,3.086,3.107,3.136,3.071
432,433,73.681,-166.782,-88.44,-12288.599,-7415.517,3.017,3.057,3.035,3.073,3.088,3.075,3.103,3.117,3.068,3.073,3.106,3.052,3.0,3.04,3.003,3.04,3.07,3.098,3.123,3.13,3.085,3.106,3.135,3.071
435,436,73.548,-166.809,-88.612,-12268.484,-7422.843,3.006,3.048,3.049,3.085,3.087,3.06,3.083,3.108,3.073,3.077,3.095,3.042,3.0,3.048,3.027,3.058,3.07,3.082,3.104,3.119,3.084,3.1,3.121,3.055
438,439,73.456,-166.805,-88.865,-12252.819,-7448.431,3.0,3.037,3.055,3.095,3.086,3.046,3.062,3.099,3.074,3.08,3.084,3.033,3.005,3.054,3.041,3.071,3.069,3.068,3.083,3.106,3.081,3.092,3.105,3.042
441,442,73.601,-166.777,-87.309,-12274.866,-7312.527,3.021,3.053,3.033,3.069,3.084,3.071,3.098,3.112,3.065,3.07,3.102,3.055,3.003,3.038,3.0,3.035,3.066,3.092,3.117,3.124,3.078,3.101,3.13,3.067
444,445,73.538,-166.789,-88.71,-12265.36,-7432.196,3.01,3.048,3.044,3.079,3.085,3.062,3.086,3.108,3.07,3.075,3.096,3.047,3.0,3.043,3.019,3.051,3.067,3.083,3.106,3.119,3.082,3.099,3.123,3.059
447,448,73.415,-166.817,-88.706,-12246.77,-7436.035,3.0,3.037,3.056,3.095,3.085,3.046,3.061,3.099,3.074,3.081,3.084,3.034,3.005,3.055,3.042,3.072,3.069,3.067,3.082,3.105,3.08,3.092,3.104,3.039
450,451,73.445,-166.83,-88.443,-12252.778,-7411.951,3.0,3.038,3.058,3.096,3.086,3.047,3.062,3.1,3.076,3.082,3.085,3.034,3.003,3.055,3.044,3.073,3.07,3.067,3.083,3.106,3.081,3.094,3.105,3.039
453,454,73.466,-166.779,-88.595,-12252.601,-7426.014,3.0,3.039,3.058,3.097,3.087,3.047,3.063,3.101,3.077,3.083,3.086,3.034,3.004,3.056,3.044,3.073,3.071,3.068,3.083,3.106,3.082,3.094,3.105,3.039
456,457,73.487,-166.787,-88.517,-12256.748,-7418.094,3.0,3.04,3.06,3.097,3.088,3.048,3.064,3.102,3.078,3.083,3.086,3.034,3.005,3.057,3.046,3.074,3.071,3.069,3.084,3.107,3.083,3.095,3.106,3.039
459,460,73.529,-166.803,-88.516,-12264.776,-7417.449,3.0,3.041,3.06,3.098,3.088,3.049,3.065,3.102,3.078,3.084,3.087,3.034,3.003,3.057,3.046,3.074,3.072,3.07,3.085,3.108,3.084,3.096,3.107,3.04
462,463,73.549,-166.79,-88.389,-12267.204,-7403.554,3.0,3.044,3.062,3.098,3.09,3.05,3.067,3.104,3.08,3.085,3.088,3.034,3.003,3.058,3.047,3.074,3.073,3.071,3.087,3.11,3.085,3.098,3.109,3.04
465,466,73.783,-166.835,-88.299,-12309.486,-7402.463,3.013,3.065,3.047,3.079,3.096,3.078,3.108,3.122,3.08,3.083,3.112,3.054,3.0,3.048,3.016,3.049,3.079,3.103,3.128,3.136,3.092,3.114,3.139,3.061
468,469,73.823,-166.827,-88.139,-12315.7,-7389.808,3.014,3.068,3.051,3.083,3.098,3.079,3.109,3.124,3.081,3.086,3.113,3.052,3.0,3.05,3.019,3.053,3.081,3.105,3.129,3.138,3.095,3.116,3.141,3.061
471,472,73.712,-166.789,-88.297,-12294.37,-7401.995,3.015,3.064,3.045,3.079,3.093,3.075,3.104,3.12,3.075,3.081,3.11,3.052,3.0,3.046,3.013,3.048,3.076,3.101,3.126,3.133,3.09,3.112,3.138,3.063
474,475,73.732,-166.795,-88.331,-12298.149,-7404.594,3.016,3.064,3.044,3.079,3.093,3.074,3.103,3.119,3.075,3.08,3.11,3.052,3.0,3.046,3.013,3.048,3.075,3.101,3.125,3.133,3.089,3.111,3.137,3.063
477,478,73.701,-166.768,-88.322,-12291.016,-7404.194,3.016,3.064,3.045,3.079,3.093,3.075,3.103,3.12,3.074,3.08,3.11,3.051,3.0,3.047,3.013,3.049,3.075,3.101,3.125,3.133,3.089,3.111,3.138,3.064
480,481,73.701,-166.796,-88.298,-12292.921,-7401.344,3.016,3.063,3.043,3.079,3.092,3.074,3.102,3.119,3.073,3.079,3.109,3.05,3.0,3.046,3.012,3.048,3.073,3.1,3.124,3.132,3.088,3.11,3.137,3.062
483,484,73.618,-166.818,-88.31,-12280.894,-7401.708,3.014,3.06,3.041,3.077,3.091,3.073,3.101,3.118,3.071,3.077,3.108,3.05,3.0,3.045,3.01,3.046,3.071,3.099,3.122,3.131,3.086,3.108,3.135,3.06
486,487,73.688,-166.799,-88.211,-12291.058,-7393.999,3.014,3.063,3.043,3.079,3.092,3.074,3.102,3.119,3.073,3.079,3.109,3.049,3.0,3.047,3.012,3.049,3.073,3.101,3.124,3.133,3.088,3.109,3.137,3.06
489,490,73.741,-166.827,-88.053,-12301.917,-7380.601,3.013,3.065,3.045,3.081,3.094,3.077,3.104,3.121,3.075,3.08,3.11,3.049,3.0,3.049,3.015,3.051,3.075,3.103,3.126,3.135,3.09,3.111,3.139,3.059
492,493,73.802,-166.773,-87.88,-12308.17,-7366.699,3.012,3.067,3.046,3.082,3.096,3.078,3.106,3.123,3.077,3.081,3.112,3.048,3.0,3.051,3.016,3.053,3.076,3.105,3.128,3.137,3.092,3.113,3.14,3.059
495,496,73.826,-166.794,-87.845,-12313.715,-7365.407,3.015,3.07,3.049,3.083,3.097,3.079,3.106,3.123,3.079,3.083,3.112,3.048,3.0,3.053,3.019,3.055,3.079,3.106,3.129,3.137,3.094,3.115,3.14,3.062
498,499,73.814,-166.786,-87.726,-12311.214,-7355.133,3.012,3.069,3.049,3.083,3.097,3.079,3.106,3.122,3.078,3.083,3.112,3.047,3.0,3.053,3.019,3.055,3.078,3.106,3.127,3.136,3.093,3.114,3.139,3.06
501,502,73.815,-166.769,-87.641,-12310.084,-7347.924,3.013,3.069,3.049,3.084,3.098,3.081,3.107,3.123,3.078,3.083,3.112,3.047,3.0,3.053,3.019,3.056,3.079,3.107,3.129,3.138,3.094,3.115,3.14,3.061
504,505,73.835,-166.755,-87.597,-12312.431,-7344.465,3.012,3.07,3.049,3.085,3.099,3.08,3.107,3.124,3.078,3.083,3.112,3.047,3.0,3.054,3.02,3.056,3.079,3.106,3.128,3.138,3.094,3.114,3.14,3.06
507,508,73.795,-166.828,-87.486,-12311.068,-7334.251,3.013,3.07,3.049,3.085,3.099,3.081,3.108,3.124,3.079,3.083,3.113,3.047,3.0,3.054,3.02,3.057,3.079,3.107,3.129,3.138,3.094,3.115,3.141,3.06
510,511,73.814,-166.819,-87.44,-12313.587,-7330.027,3.012,3.069,3.048,3.084,3.098,3.081,3.107,3.124,3.078,3.082,3.112,3.047,3.0,3.054,3.019,3.056,3.078,3.106,3.128,3.137,3.093,3.114,3.14,3.06
513,514,73.794,-166.828,-87.442,-12310.859,-7330.537,3.013,3.07,3.049,3.085,3.099,3.082,3.108,3.124,3.079,3.083,3.113,3.047,3.0,3.055,3.02,3.057,3.078,3.107,3.129,3.138,3.094,3.115,3.141,3.061
516,517,73.836,-166.803,-87.384,-12316.018,-7324.414,3.015,3.071,3.048,3.084,3.099,3.082,3.108,3.124,3.078,3.082,3.113,3.048,3.0,3.054,3.019,3.056,3.078,3.107,3.129,3.139,3.094,3.115,3.142,3.063
519,520,73.795,-166.834,-87.634,-12311.537,-7347.142,3.013,3.07,3.048,3.084,3.098,3.079,3.106,3.124,3.078,3.082,3.113,3.047,3.0,3.055,3.019,3.056,3.077,3.107,3.129,3.138,3.094,3.115,3.141,3.06
522,523,73.794,-166.834,-87.346,-12311.399,-7321.057,3.012,3.07,3.049,3.084,3.098,3.079,3.106,3.123,3.078,3.082,3.113,3.046,3.0,3.055,3.02,3.057,3.077,3.107,3.128,3.137,3.093,3.115,3.14,3.059
525,526,73.804,-166.784,-87.373,-12309.278,-7324.446,3.011,3.07,3.049,3.084,3.098,3.079,3.104,3.123,3.077,3.081,3.112,3.045,3.0,3.055,3.02,3.058,3.076,3.106,3.127,3.137,3.093,3.114,3.14,3.058
528,529,73.764,-166.784,-87.361,-12302.586,-7321.769,3.01,3.069,3.047,3.083,3.097,3.077,3.103,3.122,3.076,3.081,3.111,3.044,3.0,3.055,3.02,3.057,3.075,3.105,3.127,3.136,3.092,3.113,3.139,3.057
531,532,73.825,-166.818,-87.347,-12315.308,-7321.114,3.013,3.071,3.048,3.083,3.098,3.08,3.107,3.124,3.078,3.082,3.114,3.047,3.0,3.055,3.019,3.057,3.079,3.107,3.13,3.139,3.094,3.115,3.141,3.061
534,535,73.785,-166.832,-87.393,-12309.703,-7326.055,3.01,3.069,3.048,3.083,3.097,3.078,3.104,3.122,3.076,3.081,3.111,3.044,3.0,3.055,3.02,3.058,3.077,3.106,3.128,3.136,3.093,3.113,3.139,3.058
537,538,73.784,-166.763,-87.329,-12304.454,-7319.147,3.01,3.069,3.046,3.081,3.097,3.078,3.104,3.122,3.075,3.08,3.112,3.045,3.0,3.055,3.019,3.056,3.076,3.106,3.128,3.137,3.093,3.113,3.14,3.059
540,541,73.753,-166.809,-87.33,-12302.655,-7318.365,3.011,3.068,3.045,3.081,3.096,3.077,3.104,3.121,3.074,3.078,3.111,3.044,3.0,3.054,3.017,3.055,3.075,3.106,3.127,3.136,3.091,3.112,3.139,3.059
543,544,73.784,-166.809,-87.281,-12307.825,-7314.25,3.013,3.07,3.046,3.081,3.097,3.078,3.105,3.122,3.075,3.079,3.112,3.045,3.0,3.054,3.018,3.056,3.075,3.107,3.128,3.137,3.092,3.113,3.14,3.06
546,547,73.805,-166.849,-87.265,-12314.297,-7313.665,3.016,3.071,3.047,3.083,3.098,3.08,3.106,3.123,3.077,3.08,3.113,3.046,3.0,3.055,3.019,3.057,3.076,3.107,3.129,3.138,3.094,3.115,3.142,3.064
549,550,73.826,-166.768,-87.263,-12311.721,-7315.008,3.014,3.071,3.049,3.084,3.098,3.079,3.105,3.123,3.077,3.081,3.112,3.043,3.0,3.057,3.022,3.06,3.077,3.107,3.128,3.138,3.095,3.115,3.141,3.063
552,553,73.773,-166.798,-87.305,-12305.176,-7316.291,3.015,3.07,3.046,3.082,3.097,3.078,3.104,3.122,3.075,3.079,3.111,3.043,3.0,3.055,3.019,3.057,3.075,3.107,3.128,3.137,3.093,3.114,3.141,3.062
555,556,73.816,-166.802,-87.21,-12312.668,-7307.605,3.015,3.072,3.048,3.083,3.098,3.079,3.105,3.123,3.076,3.08,3.112,3.043,3.0,3.057,3.02,3.059,3.076,3.108,3.129,3.137,3.094,3.115,3.141,3.063
558,559,73.785,-166.829,-87.224,-12309.509,-7308.714,3.015,3.071,3.047,3.082,3.097,3.08,3.105,3.122,3.076,3.079,3.111,3.044,3.0,3.056,3.02,3.058,3.075,3.107,3.128,3.137,3.093,3.114,3.141,3.063
561,562,73.806,-166.78,-87.26,-12309.403,-7312.597,3.014,3.071,3.048,3.083,3.098,3.079,3.104,3.122,3.076,3.08,3.111,3.042,3.0,3.057,3.021,3.06,3.075,3.107,3.127,3.137,3.093,3.114,3.14,3.061
564,565,73.753,-166.805,-87.272,-12302.376,-7312.472,3.015,3.071,3.046,3.081,3.097,3.079,3.104,3.122,3.075,3.079,3.111,3.044,3.0,3.055,3.018,3.057,3.073,3.106,3.127,3.137,3.092,3.113,3.14,3.063
567,568,73.735,-166.803,-87.278,-12299.186,-7313.014,3.014,3.07,3.046,3.082,3.096,3.078,3.104,3.121,3.075,3.078,3.11,3.043,3.0,3.056,3.019,3.058,3.074,3.106,3.127,3.136,3.092,3.113,3.14,3.062
570,571,73.754,-166.828,-87.202,-12304.189,-7306.585,3.015,3.071,3.047,3.082,3.097,3.079,3.104,3.121,3.075,3.079,3.111,3.043,3.0,3.056,3.02,3.059,3.074,3.107,3.127,3.137,3.092,3.113,3.141,3.063
573,574,73.837,-166.78,-87.057,-12314.623,-7292.985,3.015,3.072,3.047,3.082,3.098,3.08,3.106,3.123,3.076,3.079,3.112,3.043,3.0,3.057,3.019,3.059,3.074,3.107,3.129,3.138,3.093,3.114,3.142,3.064
576,577,73.805,-166.83,-87.007,-12312.997,-7287.595,3.018,3.072,3.047,3.081,3.098,3.081,3.106,3.123,3.076,3.079,3.112,3.045,3.0,3.056,3.018,3.057,3.073,3.108,3.128,3.138,3.093,3.114,3.142,3.065
579,580,73.69,-166.792,-87.351,-12290.862,-7316.683,3.013,3.064,3.045,3.079,3.095,3.073,3.098,3.118,3.074,3.079,3.107,3.045,3.0,3.051,3.016,3.054,3.07,3.1,3.12,3.131,3.091,3.109,3.135,3.059
582,583,73.814,-166.808,-86.91,-12312.711,-7282.963,3.015,3.071,3.052,3.085,3.099,3.078,3.103,3.122,3.079,3.083,3.111,3.044,3.0,3.055,3.023,3.06,3.075,3.104,3.124,3.135,3.094,3.113,3.138,3.059
585,586,73.824,-166.775,-86.796,-12311.98,-7271.958,3.012,3.071,3.053,3.086,3.1,3.078,3.102,3.121,3.08,3.083,3.111,3.043,3.0,3.058,3.026,3.063,3.076,3.104,3.123,3.135,3.095,3.113,3.137,3.055
588,589,73.795,-166.819,-86.825,-12310.429,-7274.231,3.009,3.07,3.053,3.086,3.099,3.077,3.101,3.121,3.08,3.083,3.11,3.041,3.0,3.059,3.028,3.064,3.076,3.103,3.122,3.134,3.094,3.112,3.136,3.052
591,592,73.816,-166.837,-86.836,-12315.251,-7274.924,3.011,3.072,3.054,3.087,3.099,3.078,3.102,3.122,3.08,3.083,3.111,3.042,3.0,3.059,3.027,3.064,3.077,3.104,3.123,3.134,3.095,3.113,3.137,3.054
593,594,73.783,-166.772,-86.858,-12305.0,-7276.976,3.01,3.071,3.054,3.087,3.099,3.079,3.102,3.122,3.08,3.083,3.111,3.042,3.0,3.06,3.028,3.064,3.076,3.104,3.122,3.134,3.094,3.113,3.137,3.053