File: data/#7 (35도_충전0.5C_방전0.5C)_충방전싸이클_result.csv
,Cycle,Voltage(V),Current(A),Capacity(Ah),Power(W),wattHour(Wh),CELL1,CELL2,CELL3,CELL4,CELL5,CELL6,CELL7,CELL8,CELL9,CELL10,CELL11,CELL12,CELL13,CELL14,CELL15,CELL16,CELL17,CELL18,CELL19,CELL20,CELL21,CELL22,CELL23,CELL24
0,1,72.796,-55.592,-94.809,-4046.909,-8222.106,3.022,3.064,3.032,3.055,3.053,3.033,3.049,3.058,3.026,3.05,3.033,3.017,3.0,3.014,3.014,3.005,3.004,3.033,3.045,3.043,3.049,3.057,3.0,3.054
3,4,72.847,-55.594,-94.767,-4049.879,-8219.436,3.024,3.067,3.036,3.058,3.056,3.035,3.051,3.061,3.03,3.054,3.036,3.018,3.004,3.017,3.018,3.008,3.007,3.036,3.047,3.045,3.052,3.058,3.0,3.054
6,7,72.899,-55.586,-94.659,-4052.134,-8210.254,3.024,3.068,3.039,3.061,3.057,3.036,3.052,3.063,3.032,3.056,3.037,3.019,3.005,3.02,3.021,3.011,3.008,3.038,3.048,3.047,3.053,3.059,3.0,3.053
9,10,72.908,-55.608,-94.571,-4054.277,-8202.544,3.025,3.069,3.041,3.062,3.058,3.037,3.053,3.064,3.034,3.059,3.038,3.02,3.008,3.022,3.023,3.012,3.01,3.04,3.048,3.048,3.055,3.06,3.0,3.053
12,13,72.94,-55.613,-94.528,-4056.416,-8199.197,3.026,3.07,3.043,3.063,3.059,3.038,3.053,3.065,3.035,3.06,3.039,3.021,3.01,3.023,3.026,3.014,3.011,3.041,3.049,3.049,3.056,3.06,3.0,3.053
15,16,72.919,-55.596,-94.442,-4054.009,-8191.304,3.026,3.07,3.043,3.064,3.059,3.038,3.053,3.065,3.036,3.061,3.04,3.022,3.011,3.024,3.026,3.015,3.011,3.043,3.049,3.05,3.056,3.06,3.0,3.053
18,19,73.001,-55.609,-94.393,-4059.491,-8187.45,3.027,3.071,3.045,3.066,3.061,3.039,3.054,3.066,3.038,3.064,3.041,3.023,3.013,3.027,3.029,3.017,3.013,3.044,3.05,3.051,3.058,3.061,3.0,3.052
21,22,72.981,-55.598,-94.346,-4057.599,-8183.286,3.027,3.071,3.045,3.065,3.061,3.039,3.054,3.066,3.038,3.064,3.041,3.024,3.015,3.027,3.029,3.017,3.013,3.045,3.05,3.051,3.058,3.06,3.0,3.053
24,25,73.0,-55.598,-94.279,-4058.669,-8177.556,3.028,3.072,3.046,3.067,3.062,3.04,3.055,3.067,3.04,3.066,3.042,3.025,3.017,3.029,3.031,3.019,3.014,3.046,3.051,3.052,3.06,3.061,3.0,3.052
27,28,73.01,-55.61,-94.278,-4060.082,-8177.85,3.03,3.072,3.046,3.067,3.062,3.039,3.055,3.066,3.04,3.066,3.043,3.027,3.019,3.03,3.03,3.019,3.014,3.047,3.051,3.052,3.059,3.06,3.0,3.054
30,31,73.029,-55.614,-94.253,-4061.435,-8175.904,3.031,3.073,3.047,3.068,3.062,3.04,3.055,3.067,3.042,3.067,3.044,3.027,3.02,3.031,3.033,3.02,3.015,3.048,3.052,3.054,3.061,3.06,3.0,3.054
33,34,73.049,-55.609,-94.17,-4062.217,-8168.176,3.032,3.073,3.047,3.068,3.062,3.04,3.055,3.067,3.042,3.067,3.043,3.028,3.021,3.032,3.032,3.02,3.015,3.049,3.051,3.053,3.06,3.06,3.0,3.055
36,37,73.07,-55.607,-94.143,-4063.243,-8166.188,3.033,3.075,3.048,3.069,3.063,3.04,3.055,3.067,3.043,3.068,3.044,3.027,3.021,3.033,3.033,3.022,3.016,3.05,3.051,3.054,3.061,3.06,3.0,3.055
39,40,73.151,-55.604,-94.94,-4067.506,-8241.428,3.04,3.079,3.057,3.075,3.064,3.041,3.055,3.071,3.048,3.074,3.045,3.03,3.027,3.041,3.042,3.029,3.021,3.054,3.051,3.055,3.064,3.061,3.0,3.054
42,43,73.183,-55.601,-94.872,-4069.029,-8235.674,3.043,3.081,3.058,3.077,3.065,3.042,3.055,3.072,3.05,3.076,3.046,3.031,3.031,3.043,3.044,3.031,3.022,3.056,3.053,3.057,3.066,3.061,3.0,3.056
45,46,73.224,-55.594,-94.806,-4070.833,-8229.841,3.044,3.082,3.059,3.077,3.066,3.042,3.056,3.072,3.051,3.077,3.047,3.032,3.031,3.045,3.045,3.032,3.023,3.057,3.053,3.058,3.066,3.061,3.0,3.057
48,49,73.234,-55.599,-94.72,-4071.756,-8222.134,3.045,3.083,3.059,3.078,3.066,3.042,3.055,3.073,3.052,3.077,3.047,3.032,3.031,3.045,3.046,3.033,3.023,3.057,3.053,3.057,3.067,3.061,3.0,3.056
51,52,73.235,-55.59,-94.669,-4071.142,-8217.363,3.046,3.083,3.06,3.079,3.066,3.042,3.056,3.073,3.051,3.077,3.046,3.032,3.031,3.045,3.046,3.033,3.024,3.058,3.053,3.057,3.067,3.061,3.0,3.058
54,55,73.255,-55.589,-94.628,-4072.208,-8214.015,3.047,3.084,3.06,3.079,3.066,3.043,3.057,3.073,3.052,3.078,3.047,3.032,3.032,3.046,3.047,3.034,3.024,3.058,3.053,3.058,3.067,3.061,3.0,3.058
57,58,73.194,-55.592,-94.561,-4069.011,-8207.726,3.047,3.084,3.06,3.079,3.066,3.042,3.056,3.073,3.051,3.077,3.047,3.033,3.032,3.046,3.046,3.034,3.024,3.058,3.053,3.057,3.067,3.06,3.0,3.058
60,61,73.213,-55.605,-94.538,-4071.055,-8205.864,3.047,3.084,3.061,3.08,3.066,3.043,3.057,3.073,3.051,3.078,3.046,3.033,3.032,3.046,3.047,3.034,3.025,3.058,3.053,3.057,3.067,3.061,3.0,3.058
63,64,73.205,-55.587,-94.489,-4069.238,-8201.121,3.047,3.084,3.06,3.08,3.066,3.043,3.057,3.074,3.051,3.077,3.046,3.033,3.031,3.046,3.047,3.034,3.025,3.058,3.053,3.057,3.067,3.06,3.0,3.059
66,67,73.224,-55.591,-94.431,-4070.578,-8195.902,3.047,3.084,3.06,3.08,3.065,3.042,3.057,3.073,3.05,3.077,3.046,3.033,3.031,3.045,3.046,3.034,3.025,3.057,3.053,3.056,3.067,3.06,3.0,3.059
69,70,73.223,-55.61,-94.426,-4071.889,-8195.522,3.047,3.084,3.06,3.08,3.065,3.043,3.057,3.073,3.05,3.077,3.046,3.033,3.031,3.045,3.046,3.034,3.025,3.057,3.053,3.055,3.067,3.06,3.0,3.059
72,73,73.213,-55.606,-94.365,-4071.099,-8189.884,3.047,3.084,3.06,3.08,3.065,3.043,3.057,3.073,3.049,3.077,3.046,3.034,3.03,3.045,3.046,3.034,3.025,3.057,3.052,3.055,3.067,3.06,3.0,3.059
75,76,73.213,-55.596,-94.322,-4070.321,-8185.811,3.047,3.084,3.061,3.08,3.065,3.042,3.057,3.074,3.05,3.077,3.046,3.034,3.03,3.045,3.046,3.034,3.025,3.057,3.052,3.055,3.067,3.06,3.0,3.059
78,79,73.223,-55.586,-94.27,-4070.21,-8181.01,3.047,3.084,3.061,3.08,3.065,3.043,3.057,3.074,3.049,3.076,3.046,3.034,3.03,3.044,3.046,3.034,3.026,3.057,3.052,3.054,3.067,3.06,3.0,3.059
81,82,73.244,-55.601,-94.237,-4072.427,-8178.052,3.047,3.084,3.061,3.081,3.065,3.042,3.058,3.075,3.049,3.077,3.046,3.034,3.03,3.044,3.046,3.034,3.026,3.057,3.052,3.055,3.067,3.06,3.0,3.059
84,85,73.214,-55.612,-94.202,-4071.554,-8174.609,3.046,3.084,3.061,3.081,3.065,3.043,3.057,3.075,3.049,3.076,3.045,3.034,3.029,3.044,3.046,3.034,3.026,3.057,3.052,3.054,3.067,3.06,3.0,3.058
87,88,73.214,-55.614,-94.164,-4071.757,-8171.134,3.046,3.085,3.062,3.082,3.065,3.043,3.057,3.075,3.049,3.077,3.046,3.034,3.029,3.044,3.046,3.035,3.027,3.057,3.052,3.054,3.068,3.06,3.0,3.058
90,91,73.206,-55.591,-94.082,-4069.591,-8163.085,3.046,3.085,3.062,3.081,3.066,3.043,3.058,3.076,3.049,3.077,3.046,3.033,3.028,3.043,3.046,3.035,3.027,3.056,3.052,3.054,3.067,3.06,3.0,3.057
93,94,73.237,-55.619,-93.988,-4073.409,-8154.371,3.045,3.086,3.063,3.083,3.067,3.044,3.059,3.077,3.051,3.078,3.047,3.033,3.027,3.044,3.047,3.036,3.028,3.057,3.053,3.055,3.068,3.062,3.0,3.056
96,97,73.309,-55.606,-93.948,-4076.43,-8150.543,3.045,3.086,3.063,3.083,3.067,3.044,3.058,3.077,3.051,3.078,3.046,3.033,3.027,3.044,3.047,3.037,3.029,3.057,3.054,3.055,3.069,3.062,3.0,3.055
99,100,73.072,-55.613,-94.428,-4063.727,-8189.629,3.037,3.078,3.053,3.072,3.062,3.041,3.055,3.071,3.043,3.067,3.042,3.029,3.019,3.035,3.036,3.028,3.024,3.049,3.052,3.049,3.061,3.058,3.0,3.052
102,103,73.153,-55.599,-94.343,-4067.253,-8182.982,3.039,3.081,3.056,3.075,3.064,3.042,3.056,3.074,3.045,3.069,3.043,3.031,3.023,3.038,3.04,3.031,3.026,3.05,3.052,3.051,3.063,3.059,3.0,3.053
105,106,73.143,-55.591,-94.228,-4066.087,-8172.619,3.041,3.081,3.057,3.075,3.065,3.043,3.056,3.074,3.045,3.07,3.044,3.032,3.023,3.038,3.04,3.031,3.027,3.052,3.054,3.051,3.064,3.059,3.0,3.054
108,109,73.173,-55.608,-94.179,-4069.003,-8168.924,3.042,3.083,3.058,3.077,3.065,3.044,3.056,3.075,3.046,3.071,3.044,3.033,3.024,3.04,3.041,3.033,3.028,3.052,3.054,3.051,3.065,3.059,3.0,3.055
111,112,73.162,-55.605,-94.145,-4068.208,-8166.161,3.043,3.083,3.059,3.077,3.066,3.044,3.056,3.075,3.046,3.072,3.044,3.033,3.025,3.04,3.041,3.033,3.028,3.053,3.054,3.052,3.065,3.06,3.0,3.056
114,115,73.182,-55.6,-94.066,-4068.936,-8159.059,3.044,3.084,3.06,3.078,3.066,3.045,3.056,3.075,3.046,3.072,3.044,3.033,3.025,3.04,3.042,3.033,3.028,3.054,3.055,3.052,3.066,3.06,3.0,3.056
117,118,73.201,-55.595,-93.978,-4069.606,-8151.1,3.045,3.084,3.06,3.079,3.067,3.045,3.057,3.076,3.047,3.073,3.044,3.034,3.025,3.041,3.043,3.034,3.029,3.054,3.055,3.052,3.066,3.06,3.0,3.057
120,121,73.182,-55.601,-93.952,-4068.984,-8148.858,3.045,3.085,3.06,3.079,3.067,3.045,3.056,3.076,3.047,3.073,3.044,3.033,3.025,3.041,3.043,3.034,3.029,3.054,3.056,3.052,3.066,3.06,3.0,3.057
123,124,73.223,-55.614,-93.944,-4072.256,-8148.281,3.045,3.085,3.061,3.079,3.067,3.046,3.056,3.076,3.047,3.073,3.045,3.034,3.025,3.041,3.043,3.034,3.029,3.055,3.056,3.052,3.067,3.059,3.0,3.058
126,127,73.233,-55.585,-93.887,-4070.691,-8143.058,3.046,3.085,3.061,3.079,3.067,3.046,3.056,3.076,3.047,3.074,3.045,3.034,3.025,3.042,3.043,3.035,3.03,3.055,3.056,3.053,3.067,3.059,3.0,3.058
129,130,73.203,-55.574,-93.835,-4068.192,-8138.054,3.048,3.085,3.06,3.079,3.067,3.045,3.056,3.075,3.046,3.073,3.044,3.035,3.027,3.041,3.042,3.034,3.029,3.055,3.056,3.052,3.066,3.059,3.0,3.06
132,133,73.214,-55.596,-93.887,-4070.418,-8143.271,3.049,3.085,3.06,3.078,3.066,3.045,3.055,3.074,3.045,3.073,3.044,3.036,3.028,3.041,3.042,3.033,3.028,3.055,3.056,3.051,3.066,3.058,3.0,3.061
135,136,73.174,-55.6,-93.858,-4068.426,-8140.604,3.049,3.085,3.06,3.078,3.066,3.045,3.056,3.074,3.045,3.073,3.044,3.037,3.028,3.041,3.042,3.033,3.028,3.056,3.056,3.052,3.065,3.058,3.0,3.062
138,139,73.225,-55.608,-93.798,-4071.903,-8134.923,3.049,3.086,3.06,3.079,3.067,3.045,3.056,3.075,3.046,3.074,3.044,3.036,3.028,3.041,3.042,3.034,3.029,3.055,3.057,3.052,3.066,3.058,3.0,3.061
141,142,73.183,-55.606,-93.719,-4069.444,-8127.581,3.048,3.085,3.061,3.079,3.067,3.045,3.056,3.075,3.046,3.074,3.044,3.036,3.027,3.041,3.043,3.034,3.029,3.055,3.056,3.052,3.067,3.058,3.0,3.061
144,145,73.234,-55.578,-93.654,-4070.228,-8121.248,3.049,3.086,3.061,3.08,3.067,3.046,3.056,3.076,3.046,3.074,3.045,3.037,3.027,3.042,3.042,3.034,3.03,3.056,3.057,3.052,3.067,3.058,3.0,3.061
147,148,73.225,-55.603,-93.605,-4071.485,-8116.995,3.048,3.087,3.063,3.081,3.068,3.046,3.057,3.077,3.048,3.075,3.045,3.036,3.027,3.042,3.044,3.036,3.031,3.057,3.057,3.053,3.068,3.059,3.0,3.06
150,151,73.236,-55.594,-93.518,-4071.439,-8108.444,3.048,3.087,3.063,3.082,3.069,3.047,3.058,3.077,3.048,3.076,3.046,3.037,3.026,3.042,3.044,3.036,3.032,3.057,3.058,3.054,3.069,3.06,3.0,3.059
153,154,73.297,-55.605,-93.42,-4075.669,-8099.409,3.046,3.088,3.065,3.084,3.071,3.048,3.059,3.079,3.051,3.078,3.047,3.036,3.024,3.044,3.047,3.038,3.033,3.057,3.058,3.055,3.07,3.061,3.0,3.056
156,157,73.308,-55.595,-93.233,-4075.56,-8081.412,3.043,3.089,3.067,3.086,3.073,3.05,3.061,3.082,3.054,3.08,3.049,3.035,3.023,3.046,3.049,3.041,3.036,3.058,3.059,3.057,3.072,3.063,3.0,3.051
159,160,73.339,-55.611,-93.078,-4078.42,-8066.761,3.04,3.091,3.07,3.089,3.076,3.052,3.064,3.084,3.057,3.083,3.051,3.034,3.022,3.049,3.052,3.045,3.039,3.06,3.06,3.059,3.075,3.065,3.0,3.046
162,163,73.36,-55.597,-93.017,-4078.573,-8061.122,3.041,3.091,3.071,3.089,3.076,3.053,3.064,3.085,3.058,3.084,3.052,3.037,3.026,3.05,3.053,3.046,3.04,3.061,3.062,3.06,3.075,3.065,3.0,3.045
165,166,73.329,-55.602,-93.129,-4077.265,-8072.038,3.04,3.09,3.069,3.087,3.075,3.051,3.063,3.084,3.056,3.083,3.051,3.039,3.029,3.05,3.053,3.045,3.04,3.063,3.063,3.06,3.074,3.064,3.0,3.048
168,169,73.216,-55.597,-93.597,-4070.585,-8115.239,3.053,3.083,3.056,3.075,3.063,3.042,3.053,3.071,3.041,3.071,3.043,3.044,3.04,3.042,3.039,3.031,3.028,3.058,3.057,3.05,3.064,3.054,3.0,3.071
171,172,73.112,-55.585,-93.963,-4063.914,-8149.212,3.056,3.082,3.053,3.071,3.059,3.038,3.048,3.066,3.036,3.067,3.039,3.042,3.036,3.037,3.034,3.026,3.023,3.054,3.054,3.045,3.061,3.052,3.0,3.074
174,175,73.121,-55.594,-93.909,-4065.105,-8144.044,3.056,3.082,3.054,3.072,3.06,3.039,3.049,3.067,3.037,3.068,3.04,3.042,3.035,3.037,3.036,3.027,3.024,3.054,3.054,3.046,3.061,3.052,3.0,3.073
177,178,73.142,-55.616,-93.861,-4067.887,-8139.335,3.056,3.082,3.054,3.072,3.059,3.038,3.049,3.067,3.036,3.067,3.039,3.041,3.034,3.037,3.034,3.026,3.024,3.054,3.053,3.046,3.061,3.052,3.0,3.074
180,181,73.173,-55.614,-93.575,-4069.47,-8109.52,3.05,3.084,3.058,3.076,3.065,3.044,3.056,3.072,3.044,3.071,3.043,3.033,3.02,3.037,3.037,3.03,3.027,3.052,3.053,3.05,3.064,3.056,3.0,3.062
183,184,73.183,-55.599,-93.433,-4068.872,-8097.091,3.049,3.085,3.06,3.078,3.066,3.044,3.056,3.073,3.046,3.072,3.043,3.033,3.021,3.039,3.04,3.033,3.029,3.052,3.054,3.051,3.065,3.056,3.0,3.06
186,187,73.192,-55.613,-93.365,-4070.469,-8091.705,3.049,3.087,3.062,3.079,3.067,3.045,3.056,3.075,3.047,3.073,3.044,3.034,3.022,3.04,3.042,3.034,3.03,3.053,3.054,3.052,3.067,3.057,3.0,3.06
189,190,73.233,-55.61,-93.292,-4072.511,-8085.52,3.05,3.087,3.063,3.08,3.068,3.045,3.057,3.076,3.047,3.074,3.044,3.035,3.023,3.041,3.042,3.035,3.031,3.054,3.055,3.052,3.067,3.057,3.0,3.06
192,193,73.253,-55.603,-93.236,-4073.126,-8080.758,3.05,3.088,3.064,3.081,3.068,3.046,3.057,3.077,3.048,3.075,3.044,3.035,3.024,3.041,3.043,3.036,3.032,3.054,3.055,3.052,3.068,3.058,3.0,3.061
195,196,73.233,-55.594,-93.205,-4071.299,-8078.066,3.05,3.088,3.064,3.082,3.069,3.046,3.057,3.076,3.047,3.075,3.044,3.036,3.025,3.041,3.043,3.036,3.032,3.055,3.056,3.052,3.069,3.058,3.0,3.061
198,199,73.223,-55.588,-93.165,-4070.31,-8074.513,3.05,3.089,3.065,3.082,3.069,3.046,3.057,3.077,3.048,3.076,3.045,3.036,3.025,3.042,3.044,3.036,3.032,3.055,3.056,3.053,3.069,3.058,3.0,3.061
201,202,73.141,-55.606,-93.55,-4067.093,-8108.31,3.044,3.083,3.059,3.076,3.064,3.043,3.055,3.072,3.044,3.07,3.042,3.032,3.019,3.037,3.038,3.032,3.028,3.05,3.053,3.049,3.064,3.054,3.0,3.056
204,205,73.182,-55.608,-93.536,-4069.521,-8107.852,3.046,3.084,3.059,3.076,3.064,3.043,3.054,3.072,3.043,3.07,3.042,3.033,3.022,3.037,3.039,3.032,3.028,3.051,3.053,3.049,3.065,3.054,3.0,3.059
207,208,73.17,-55.602,-93.455,-4068.367,-8100.885,3.047,3.085,3.061,3.078,3.066,3.044,3.054,3.073,3.045,3.072,3.042,3.034,3.023,3.038,3.04,3.033,3.029,3.052,3.054,3.05,3.066,3.055,3.0,3.059
210,211,73.212,-55.605,-93.372,-4070.948,-8093.618,3.048,3.087,3.062,3.079,3.067,3.044,3.055,3.074,3.045,3.073,3.043,3.035,3.023,3.039,3.041,3.033,3.03,3.052,3.055,3.051,3.067,3.056,3.0,3.06
213,214,73.202,-55.589,-93.305,-4069.232,-8087.273,3.049,3.087,3.063,3.08,3.067,3.044,3.055,3.075,3.046,3.073,3.043,3.035,3.023,3.039,3.041,3.034,3.031,3.053,3.055,3.051,3.067,3.056,3.0,3.06
216,217,73.213,-55.607,-93.273,-4071.141,-8084.795,3.05,3.088,3.063,3.08,3.068,3.045,3.055,3.075,3.046,3.074,3.043,3.035,3.023,3.04,3.042,3.035,3.031,3.054,3.056,3.051,3.068,3.056,3.0,3.061
219,220,73.225,-55.612,-93.182,-4072.212,-8075.715,3.05,3.088,3.063,3.08,3.068,3.045,3.056,3.075,3.046,3.074,3.043,3.036,3.024,3.04,3.041,3.034,3.031,3.054,3.056,3.051,3.068,3.056,3.0,3.061
222,223,73.224,-55.603,-93.154,-4071.503,-8073.144,3.051,3.089,3.064,3.081,3.068,3.045,3.056,3.075,3.046,3.074,3.043,3.036,3.024,3.04,3.041,3.034,3.031,3.055,3.056,3.052,3.068,3.056,3.0,3.062
225,226,73.214,-55.591,-93.112,-4070.06,-8069.325,3.051,3.089,3.063,3.081,3.068,3.045,3.055,3.075,3.045,3.074,3.044,3.036,3.024,3.04,3.041,3.034,3.031,3.055,3.056,3.051,3.068,3.056,3.0,3.062
228,229,73.244,-55.601,-93.112,-4072.393,-8069.874,3.052,3.09,3.064,3.082,3.069,3.046,3.056,3.076,3.046,3.075,3.044,3.036,3.025,3.041,3.042,3.035,3.032,3.055,3.057,3.052,3.069,3.057,3.0,3.063
231,232,73.265,-55.605,-93.061,-4073.913,-8064.796,3.052,3.089,3.064,3.082,3.069,3.045,3.056,3.076,3.046,3.075,3.044,3.037,3.025,3.04,3.042,3.035,3.032,3.055,3.057,3.052,3.068,3.056,3.0,3.063
234,235,73.19,-55.578,-93.027,-4067.791,-8062.069,3.052,3.09,3.065,3.083,3.069,3.046,3.056,3.076,3.047,3.076,3.044,3.036,3.025,3.041,3.043,3.036,3.033,3.055,3.057,3.052,3.069,3.057,3.0,3.062
237,238,73.253,-55.588,-92.982,-4071.997,-8057.661,3.052,3.09,3.065,3.082,3.07,3.046,3.056,3.076,3.046,3.076,3.044,3.036,3.025,3.041,3.042,3.035,3.032,3.055,3.057,3.052,3.069,3.057,3.0,3.063
240,241,73.272,-55.601,-92.931,-4073.981,-8053.007,3.052,3.09,3.065,3.083,3.07,3.046,3.056,3.076,3.047,3.076,3.044,3.036,3.025,3.041,3.043,3.036,3.033,3.055,3.057,3.052,3.07,3.057,3.0,3.063
243,244,73.282,-55.602,-92.922,-4074.6,-8052.447,3.052,3.091,3.065,3.083,3.07,3.046,3.056,3.077,3.047,3.076,3.044,3.036,3.025,3.042,3.043,3.036,3.033,3.056,3.058,3.053,3.07,3.057,3.0,3.063
246,247,73.264,-55.594,-92.874,-4073.018,-8047.289,3.053,3.09,3.065,3.082,3.069,3.046,3.056,3.076,3.046,3.075,3.044,3.037,3.025,3.041,3.042,3.035,3.032,3.056,3.057,3.052,3.069,3.056,3.0,3.064
249,250,73.234,-55.582,-92.88,-4070.498,-8048.073,3.053,3.09,3.065,3.082,3.07,3.046,3.056,3.076,3.046,3.075,3.044,3.037,3.025,3.041,3.041,3.035,3.033,3.056,3.057,3.052,3.069,3.056,3.0,3.064
252,253,73.235,-55.609,-92.807,-4072.538,-8040.816,3.053,3.09,3.065,3.082,3.07,3.046,3.056,3.076,3.046,3.075,3.044,3.037,3.026,3.041,3.042,3.035,3.033,3.055,3.058,3.052,3.069,3.056,3.0,3.065
255,256,73.245,-55.601,-92.82,-4072.558,-8042.326,3.053,3.09,3.065,3.083,3.07,3.046,3.055,3.076,3.046,3.075,3.044,3.037,3.026,3.041,3.042,3.035,3.033,3.056,3.057,3.052,3.07,3.056,3.0,3.065
258,259,73.265,-55.609,-92.718,-4074.199,-8032.463,3.053,3.091,3.065,3.083,3.07,3.046,3.056,3.076,3.046,3.076,3.044,3.037,3.026,3.041,3.042,3.035,3.033,3.056,3.058,3.053,3.07,3.057,3.0,3.065
261,262,73.274,-55.589,-92.733,-4073.196,-8034.361,3.054,3.091,3.066,3.084,3.07,3.046,3.056,3.077,3.047,3.076,3.044,3.037,3.025,3.042,3.043,3.036,3.033,3.056,3.058,3.053,3.07,3.057,3.0,3.064
264,265,73.266,-55.6,-92.648,-4073.543,-8025.814,3.053,3.091,3.065,3.083,3.07,3.046,3.056,3.077,3.047,3.076,3.044,3.037,3.025,3.041,3.042,3.036,3.033,3.056,3.058,3.053,3.07,3.057,3.0,3.064
267,268,73.273,-55.591,-92.665,-4073.357,-8027.893,3.053,3.092,3.067,3.084,3.071,3.046,3.056,3.077,3.048,3.077,3.044,3.037,3.025,3.042,3.043,3.037,3.034,3.056,3.058,3.053,3.071,3.057,3.0,3.064
270,271,73.276,-55.621,-92.609,-4075.638,-8022.177,3.053,3.092,3.067,3.084,3.071,3.047,3.056,3.077,3.047,3.077,3.044,3.037,3.025,3.041,3.043,3.036,3.034,3.056,3.058,3.053,3.071,3.057,3.0,3.064
273,274,73.284,-55.587,-92.599,-4073.656,-8021.56,3.053,3.092,3.067,3.084,3.071,3.046,3.056,3.077,3.048,3.077,3.044,3.037,3.025,3.042,3.044,3.037,3.034,3.057,3.058,3.053,3.071,3.057,3.0,3.063
276,277,73.265,-55.598,-92.541,-4073.398,-8015.813,3.053,3.092,3.067,3.084,3.071,3.046,3.056,3.077,3.047,3.077,3.045,3.037,3.025,3.041,3.043,3.036,3.034,3.056,3.058,3.053,3.071,3.057,3.0,3.064
279,280,73.294,-55.613,-92.521,-4076.086,-8014.106,3.054,3.092,3.067,3.085,3.071,3.046,3.056,3.077,3.047,3.077,3.045,3.037,3.025,3.042,3.043,3.037,3.034,3.057,3.058,3.054,3.071,3.057,3.0,3.064
282,283,73.266,-55.59,-92.505,-4072.836,-8012.394,3.054,3.092,3.067,3.084,3.071,3.046,3.056,3.077,3.047,3.077,3.045,3.037,3.025,3.042,3.043,3.036,3.034,3.056,3.058,3.053,3.071,3.057,3.0,3.065
285,286,73.244,-55.605,-92.465,-4072.721,-8008.616,3.054,3.092,3.067,3.084,3.071,3.046,3.055,3.077,3.047,3.077,3.044,3.037,3.025,3.042,3.043,3.037,3.035,3.057,3.059,3.054,3.072,3.057,3.0,3.064
288,289,73.295,-55.61,-92.454,-4075.939,-8007.765,3.054,3.093,3.067,3.085,3.071,3.047,3.056,3.077,3.048,3.077,3.044,3.037,3.025,3.042,3.043,3.037,3.035,3.057,3.059,3.053,3.072,3.057,3.0,3.064
291,292,73.275,-55.597,-92.402,-4073.847,-8002.45,3.054,3.093,3.067,3.085,3.071,3.046,3.056,3.077,3.047,3.077,3.044,3.037,3.025,3.042,3.043,3.037,3.035,3.056,3.059,3.053,3.072,3.057,3.0,3.064
294,295,73.316,-55.607,-92.361,-4076.885,-7998.871,3.054,3.093,3.068,3.085,3.072,3.047,3.055,3.077,3.048,3.078,3.044,3.037,3.025,3.042,3.044,3.037,3.035,3.056,3.059,3.054,3.072,3.057,3.0,3.064
297,298,73.276,-55.599,-92.353,-4074.114,-7997.673,3.055,3.093,3.067,3.084,3.071,3.046,3.055,3.077,3.047,3.077,3.044,3.038,3.026,3.042,3.043,3.036,3.034,3.056,3.059,3.053,3.071,3.057,3.0,3.065
300,301,73.145,-55.598,-92.737,-4066.687,-8032.088,3.048,3.086,3.06,3.077,3.065,3.041,3.051,3.07,3.041,3.069,3.039,3.033,3.021,3.036,3.037,3.031,3.029,3.05,3.054,3.048,3.065,3.051,3.0,3.061
303,304,73.205,-55.608,-92.676,-4070.793,-8027.17,3.05,3.088,3.062,3.079,3.067,3.043,3.052,3.072,3.043,3.072,3.041,3.034,3.023,3.038,3.038,3.032,3.031,3.052,3.055,3.05,3.067,3.053,3.0,3.063
306,307,73.135,-55.589,-92.63,-4065.478,-8023.028,3.052,3.089,3.064,3.08,3.067,3.043,3.053,3.073,3.043,3.072,3.041,3.035,3.024,3.038,3.039,3.033,3.031,3.053,3.056,3.05,3.068,3.053,3.0,3.064
309,310,73.227,-55.59,-92.599,-4070.681,-8020.662,3.053,3.09,3.064,3.08,3.068,3.043,3.053,3.073,3.044,3.073,3.041,3.035,3.024,3.038,3.039,3.033,3.031,3.053,3.056,3.051,3.068,3.054,3.0,3.065
312,313,73.166,-55.606,-92.58,-4068.449,-8019.176,3.054,3.091,3.065,3.081,3.069,3.044,3.053,3.074,3.044,3.074,3.042,3.036,3.025,3.039,3.04,3.033,3.032,3.054,3.057,3.051,3.069,3.054,3.0,3.066
315,316,73.227,-55.594,-92.534,-4071.022,-8014.778,3.055,3.091,3.065,3.082,3.068,3.044,3.053,3.074,3.044,3.074,3.042,3.036,3.026,3.039,3.04,3.034,3.032,3.054,3.057,3.051,3.069,3.054,3.0,3.067
318,319,73.248,-55.609,-92.511,-4073.275,-8012.727,3.055,3.091,3.065,3.082,3.069,3.044,3.053,3.074,3.044,3.074,3.042,3.036,3.026,3.04,3.04,3.034,3.032,3.054,3.057,3.051,3.07,3.054,3.0,3.067
321,322,73.228,-55.595,-92.485,-4071.105,-8010.174,3.056,3.092,3.065,3.082,3.069,3.044,3.053,3.074,3.044,3.074,3.042,3.037,3.026,3.04,3.04,3.034,3.032,3.055,3.058,3.051,3.07,3.054,3.0,3.068
324,325,73.239,-55.6,-92.468,-4072.088,-8008.879,3.056,3.092,3.066,3.082,3.069,3.044,3.053,3.074,3.044,3.074,3.042,3.036,3.026,3.04,3.04,3.034,3.032,3.055,3.058,3.051,3.07,3.054,3.0,3.068
327,328,73.238,-55.605,-92.444,-4072.384,-8006.314,3.057,3.092,3.065,3.081,3.068,3.043,3.052,3.073,3.043,3.074,3.041,3.037,3.026,3.039,3.039,3.033,3.032,3.054,3.057,3.051,3.069,3.054,3.0,3.069
330,331,73.238,-55.615,-92.42,-4073.102,-8004.145,3.057,3.092,3.065,3.082,3.069,3.043,3.052,3.073,3.043,3.074,3.042,3.037,3.027,3.039,3.039,3.033,3.032,3.055,3.058,3.051,3.07,3.055,3.0,3.07
333,334,73.237,-55.601,-92.395,-4072.056,-8002.24,3.057,3.093,3.065,3.082,3.069,3.044,3.052,3.074,3.044,3.074,3.042,3.037,3.027,3.039,3.04,3.034,3.032,3.055,3.058,3.051,3.07,3.054,3.0,3.07
336,337,73.236,-55.597,-92.398,-4071.714,-8002.568,3.057,3.093,3.066,3.083,3.069,3.044,3.052,3.074,3.043,3.074,3.041,3.037,3.027,3.04,3.04,3.034,3.032,3.055,3.058,3.051,3.07,3.054,3.0,3.07
339,340,73.247,-55.603,-92.347,-4072.71,-7997.617,3.058,3.092,3.066,3.083,3.069,3.043,3.052,3.074,3.044,3.074,3.041,3.037,3.027,3.04,3.04,3.033,3.033,3.055,3.058,3.051,3.07,3.054,3.0,3.07
342,343,73.256,-55.596,-92.32,-4072.691,-7995.397,3.058,3.093,3.067,3.083,3.07,3.044,3.053,3.074,3.044,3.075,3.042,3.037,3.027,3.04,3.041,3.034,3.033,3.055,3.058,3.052,3.071,3.055,3.0,3.07
345,346,73.247,-55.604,-92.277,-4072.83,-7991.018,3.057,3.093,3.066,3.083,3.069,3.043,3.052,3.074,3.044,3.075,3.041,3.037,3.027,3.039,3.04,3.034,3.033,3.055,3.058,3.052,3.07,3.055,3.0,3.07
348,349,73.266,-55.602,-92.265,-4073.783,-7990.167,3.058,3.093,3.067,3.083,3.069,3.043,3.052,3.074,3.044,3.075,3.042,3.037,3.027,3.04,3.04,3.034,3.033,3.055,3.058,3.052,3.071,3.055,3.0,3.07
351,352,73.234,-55.605,-92.231,-4072.228,-7986.698,3.058,3.093,3.067,3.083,3.07,3.044,3.052,3.074,3.044,3.075,3.042,3.037,3.027,3.04,3.041,3.034,3.033,3.055,3.058,3.052,3.071,3.055,3.0,3.07
354,355,73.296,-55.597,-92.238,-4075.089,-7988.047,3.058,3.094,3.068,3.084,3.07,3.043,3.053,3.074,3.045,3.076,3.042,3.037,3.027,3.041,3.042,3.035,3.034,3.056,3.059,3.052,3.072,3.055,3.0,3.07
357,358,73.255,-55.609,-92.203,-4073.68,-7984.464,3.058,3.094,3.068,3.084,3.07,3.043,3.052,3.075,3.045,3.076,3.042,3.037,3.027,3.041,3.042,3.035,3.034,3.056,3.058,3.052,3.072,3.055,3.0,3.07
360,361,73.276,-55.603,-92.198,-4074.331,-7983.856,3.059,3.094,3.068,3.084,3.07,3.043,3.052,3.075,3.045,3.076,3.042,3.037,3.027,3.041,3.041,3.035,3.034,3.056,3.058,3.052,3.072,3.055,3.0,3.07
363,364,73.257,-55.598,-92.131,-4072.888,-7977.215,3.059,3.094,3.067,3.084,3.07,3.043,3.052,3.074,3.044,3.075,3.042,3.037,3.027,3.04,3.041,3.035,3.034,3.055,3.058,3.052,3.071,3.055,3.0,3.07
366,367,73.267,-55.579,-92.105,-4072.102,-7974.758,3.059,3.094,3.068,3.084,3.07,3.043,3.052,3.075,3.045,3.076,3.042,3.037,3.027,3.041,3.041,3.035,3.034,3.056,3.059,3.052,3.072,3.055,3.0,3.071
369,370,73.278,-55.588,-92.082,-4073.366,-7972.455,3.059,3.094,3.068,3.084,3.07,3.043,3.052,3.075,3.045,3.075,3.042,3.037,3.028,3.04,3.041,3.035,3.034,3.055,3.059,3.052,3.072,3.055,3.0,3.071
372,373,73.236,-55.606,-92.061,-4072.345,-7970.416,3.059,3.094,3.068,3.084,3.07,3.043,3.052,3.074,3.045,3.075,3.041,3.037,3.027,3.04,3.04,3.034,3.034,3.055,3.058,3.052,3.072,3.055,3.0,3.071
375,376,73.287,-55.584,-92.052,-4073.566,-7969.598,3.059,3.094,3.068,3.084,3.07,3.043,3.052,3.075,3.045,3.076,3.042,3.037,3.027,3.041,3.041,3.035,3.034,3.056,3.059,3.053,3.072,3.055,3.0,3.071
378,379,73.279,-55.596,-91.971,-4074.013,-7961.875,3.059,3.095,3.068,3.084,3.071,3.043,3.052,3.074,3.045,3.076,3.042,3.037,3.027,3.041,3.041,3.035,3.034,3.055,3.059,3.052,3.072,3.055,3.0,3.071
381,382,73.267,-55.604,-91.939,-4073.957,-7958.901,3.059,3.095,3.068,3.084,3.07,3.043,3.052,3.074,3.044,3.075,3.042,3.037,3.026,3.04,3.04,3.034,3.034,3.056,3.059,3.052,3.072,3.055,3.0,3.071
384,385,73.237,-55.615,-91.841,-4073.046,-7948.803,3.058,3.094,3.067,3.083,3.07,3.043,3.052,3.074,3.043,3.074,3.041,3.037,3.026,3.039,3.039,3.033,3.033,3.055,3.058,3.052,3.071,3.055,3.0,3.071
387,388,73.238,-55.582,-91.812,-4070.686,-7946.033,3.058,3.094,3.067,3.083,3.07,3.043,3.051,3.074,3.043,3.075,3.041,3.037,3.026,3.039,3.039,3.034,3.033,3.054,3.058,3.052,3.071,3.055,3.0,3.071
390,391,73.268,-55.605,-91.781,-4074.071,-7943.164,3.059,3.094,3.067,3.083,3.07,3.043,3.052,3.074,3.043,3.074,3.042,3.037,3.026,3.039,3.039,3.033,3.033,3.055,3.058,3.052,3.071,3.055,3.0,3.072
393,394,73.186,-55.59,-91.799,-4068.407,-7944.83,3.059,3.094,3.067,3.083,3.07,3.042,3.051,3.073,3.043,3.074,3.041,3.037,3.026,3.039,3.039,3.033,3.033,3.054,3.058,3.052,3.071,3.055,3.0,3.071
396,397,73.238,-55.608,-91.721,-4072.617,-7937.318,3.059,3.094,3.067,3.083,3.07,3.042,3.051,3.074,3.043,3.074,3.041,3.037,3.026,3.039,3.039,3.033,3.033,3.054,3.059,3.052,3.071,3.055,3.0,3.072
399,400,73.116,-55.604,-92.162,-4065.521,-7975.673,3.051,3.087,3.059,3.075,3.063,3.038,3.048,3.067,3.039,3.066,3.037,3.032,3.021,3.034,3.034,3.028,3.029,3.049,3.054,3.047,3.066,3.05,3.0,3.066
402,403,73.124,-55.61,-92.159,-4066.437,-7976.523,3.054,3.089,3.061,3.077,3.064,3.039,3.049,3.069,3.04,3.068,3.038,3.033,3.023,3.035,3.035,3.03,3.03,3.05,3.055,3.048,3.067,3.051,3.0,3.068
405,406,73.143,-55.605,-92.106,-4067.122,-7972.632,3.054,3.09,3.063,3.078,3.065,3.039,3.049,3.07,3.04,3.069,3.038,3.034,3.024,3.036,3.036,3.03,3.031,3.05,3.055,3.049,3.068,3.051,3.0,3.069
408,409,73.174,-55.606,-92.04,-4068.903,-7966.758,3.056,3.091,3.064,3.079,3.066,3.04,3.049,3.07,3.04,3.07,3.038,3.034,3.024,3.036,3.036,3.03,3.031,3.051,3.056,3.049,3.069,3.052,3.0,3.07
411,412,73.175,-55.6,-92.011,-4068.552,-7964.293,3.057,3.092,3.065,3.08,3.066,3.04,3.049,3.071,3.041,3.071,3.038,3.035,3.025,3.037,3.037,3.031,3.031,3.052,3.056,3.049,3.069,3.052,3.0,3.071
414,415,73.146,-55.601,-91.952,-4066.964,-7958.999,3.057,3.093,3.065,3.08,3.067,3.041,3.049,3.071,3.041,3.071,3.039,3.035,3.025,3.037,3.037,3.031,3.032,3.052,3.056,3.05,3.07,3.053,3.0,3.071
417,418,73.227,-55.611,-91.924,-4072.256,-7956.799,3.058,3.093,3.066,3.081,3.068,3.041,3.049,3.071,3.042,3.072,3.039,3.035,3.025,3.037,3.038,3.032,3.032,3.052,3.057,3.05,3.07,3.053,3.0,3.071
420,421,73.174,-55.6,-91.885,-4068.477,-7953.224,3.058,3.094,3.066,3.082,3.068,3.041,3.05,3.071,3.042,3.072,3.039,3.035,3.026,3.037,3.038,3.032,3.032,3.053,3.058,3.051,3.071,3.053,3.0,3.072
423,424,74.839,-55.599,-91.06,-4160.978,-7891.67,3.125,3.152,3.131,3.143,3.132,3.11,3.117,3.135,3.111,3.135,3.108,3.106,3.098,3.108,3.108,3.103,3.103,3.12,3.123,3.118,3.134,3.121,3.078,3.135
426,427,73.247,-55.599,-91.814,-4072.474,-7946.775,3.06,3.094,3.067,3.082,3.069,3.041,3.05,3.072,3.042,3.073,3.04,3.036,3.026,3.038,3.038,3.032,3.033,3.053,3.058,3.051,3.071,3.054,3.0,3.073
429,430,73.226,-55.602,-91.813,-4071.465,-7946.983,3.059,3.095,3.067,3.083,3.069,3.041,3.049,3.072,3.042,3.073,3.04,3.035,3.026,3.038,3.039,3.033,3.033,3.054,3.058,3.051,3.072,3.053,3.0,3.072
432,433,73.236,-55.609,-91.773,-4072.576,-7943.006,3.06,3.095,3.067,3.083,3.069,3.041,3.05,3.073,3.042,3.073,3.04,3.036,3.026,3.038,3.039,3.033,3.033,3.054,3.058,3.052,3.072,3.054,3.0,3.073
435,436,73.236,-55.59,-91.74,-4071.153,-7940.206,3.06,3.095,3.068,3.083,3.069,3.041,3.05,3.073,3.043,3.074,3.04,3.036,3.026,3.039,3.039,3.033,3.033,3.054,3.059,3.051,3.072,3.054,3.0,3.073
438,439,73.206,-55.601,-91.707,-4070.323,-7936.991,3.06,3.095,3.068,3.084,3.07,3.042,3.05,3.073,3.044,3.074,3.04,3.036,3.026,3.039,3.04,3.034,3.034,3.054,3.059,3.052,3.072,3.055,3.0,3.072
441,442,73.276,-55.608,-91.637,-4074.682,-7930.642,3.059,3.096,3.069,3.084,3.07,3.042,3.051,3.074,3.044,3.075,3.04,3.036,3.026,3.039,3.04,3.034,3.034,3.055,3.059,3.053,3.073,3.055,3.0,3.072
444,445,73.287,-55.605,-91.559,-4075.095,-7923.454,3.057,3.097,3.071,3.087,3.072,3.044,3.052,3.076,3.046,3.077,3.042,3.035,3.025,3.041,3.043,3.037,3.037,3.056,3.061,3.055,3.075,3.056,3.0,3.067
447,448,73.307,-55.604,-91.599,-4076.176,-7926.942,3.056,3.095,3.07,3.085,3.071,3.043,3.052,3.075,3.045,3.077,3.043,3.039,3.035,3.044,3.043,3.037,3.037,3.058,3.062,3.055,3.075,3.056,3.0,3.071
450,451,73.185,-55.603,-91.961,-4069.275,-7960.859,3.062,3.094,3.065,3.08,3.066,3.038,3.046,3.069,3.039,3.071,3.038,3.039,3.032,3.038,3.036,3.03,3.031,3.053,3.057,3.049,3.07,3.052,3.0,3.078
453,454,73.195,-55.599,-91.917,-4069.608,-7956.325,3.062,3.094,3.065,3.08,3.066,3.038,3.047,3.069,3.038,3.071,3.038,3.038,3.031,3.037,3.036,3.029,3.031,3.053,3.057,3.049,3.07,3.051,3.0,3.078
456,457,73.185,-55.591,-91.855,-4068.428,-7950.483,3.062,3.094,3.066,3.081,3.067,3.039,3.047,3.07,3.04,3.072,3.038,3.038,3.031,3.038,3.037,3.031,3.031,3.054,3.058,3.05,3.07,3.052,3.0,3.078
459,460,73.217,-55.605,-91.814,-4071.174,-7946.586,3.062,3.094,3.066,3.081,3.067,3.039,3.047,3.07,3.04,3.072,3.039,3.037,3.03,3.038,3.037,3.031,3.032,3.054,3.058,3.05,3.07,3.053,3.0,3.078
462,463,73.207,-55.591,-91.775,-4069.7,-7942.829,3.062,3.094,3.066,3.081,3.067,3.039,3.047,3.07,3.04,3.072,3.039,3.037,3.03,3.038,3.037,3.031,3.032,3.053,3.058,3.05,3.071,3.053,3.0,3.077
465,466,73.227,-55.605,-91.762,-4071.837,-7941.619,3.062,3.094,3.066,3.081,3.067,3.039,3.047,3.07,3.04,3.072,3.038,3.038,3.03,3.038,3.037,3.031,3.032,3.053,3.058,3.05,3.071,3.052,3.0,3.077
468,469,73.217,-55.601,-91.729,-4070.996,-7938.255,3.062,3.095,3.067,3.082,3.068,3.039,3.047,3.07,3.04,3.072,3.039,3.038,3.03,3.038,3.038,3.031,3.032,3.054,3.058,3.05,3.072,3.053,3.0,3.077
471,472,73.206,-55.614,-91.728,-4071.259,-7938.213,3.062,3.095,3.067,3.082,3.068,3.039,3.048,3.07,3.04,3.072,3.039,3.038,3.03,3.039,3.038,3.031,3.033,3.054,3.058,3.051,3.072,3.053,3.0,3.077
474,475,73.215,-55.612,-91.685,-4071.669,-7934.16,3.062,3.095,3.067,3.082,3.068,3.039,3.048,3.071,3.04,3.072,3.039,3.037,3.03,3.038,3.038,3.031,3.033,3.054,3.058,3.051,3.072,3.053,3.0,3.077
477,478,73.246,-55.599,-91.641,-4072.417,-7930.05,3.063,3.096,3.068,3.082,3.068,3.039,3.048,3.071,3.041,3.073,3.039,3.037,3.03,3.039,3.038,3.032,3.033,3.054,3.059,3.051,3.072,3.053,3.0,3.077
480,481,73.226,-55.618,-91.622,-4072.648,-7928.241,3.063,3.096,3.068,3.083,3.068,3.039,3.047,3.071,3.041,3.073,3.039,3.037,3.029,3.038,3.038,3.032,3.033,3.054,3.059,3.051,3.072,3.053,3.0,3.077
483,484,73.237,-55.604,-91.579,-4072.322,-7924.19,3.062,3.096,3.068,3.083,3.068,3.04,3.048,3.071,3.041,3.073,3.039,3.037,3.029,3.039,3.039,3.032,3.034,3.054,3.059,3.051,3.073,3.053,3.0,3.077
486,487,73.246,-55.603,-91.523,-4072.737,-7918.744,3.062,3.096,3.068,3.083,3.069,3.04,3.048,3.072,3.042,3.073,3.039,3.037,3.029,3.039,3.039,3.032,3.034,3.054,3.059,3.052,3.073,3.054,3.0,3.076
489,490,73.246,-55.585,-91.535,-4071.407,-7920.18,3.062,3.096,3.069,3.084,3.069,3.04,3.048,3.072,3.042,3.074,3.039,3.036,3.029,3.039,3.039,3.033,3.034,3.054,3.059,3.052,3.073,3.053,3.0,3.076
492,493,73.267,-55.587,-91.469,-4072.714,-7913.78,3.063,3.097,3.069,3.084,3.069,3.04,3.048,3.072,3.042,3.074,3.039,3.037,3.029,3.039,3.039,3.033,3.034,3.054,3.059,3.052,3.073,3.054,3.0,3.076
495,496,73.237,-55.605,-91.46,-4072.344,-7912.994,3.062,3.097,3.07,3.084,3.069,3.04,3.048,3.072,3.043,3.074,3.039,3.036,3.029,3.04,3.04,3.033,3.034,3.054,3.059,3.052,3.074,3.054,3.0,3.076
498,499,73.268,-55.613,-91.405,-4074.673,-7907.733,3.062,3.097,3.07,3.085,3.07,3.041,3.048,3.073,3.043,3.075,3.039,3.036,3.028,3.04,3.04,3.034,3.035,3.055,3.06,3.053,3.074,3.055,3.0,3.076
501,502,73.216,-55.599,-91.332,-4070.743,-7901.338,3.059,3.097,3.07,3.084,3.07,3.041,3.049,3.072,3.043,3.074,3.039,3.032,3.021,3.037,3.039,3.033,3.033,3.05,3.056,3.051,3.073,3.054,3.0,3.07
504,505,73.247,-55.61,-91.302,-4073.255,-7898.721,3.06,3.098,3.071,3.085,3.071,3.041,3.05,3.073,3.044,3.074,3.039,3.033,3.023,3.038,3.04,3.034,3.034,3.051,3.057,3.052,3.073,3.054,3.0,3.07
507,508,73.279,-55.59,-91.359,-4073.572,-7904.226,3.062,3.098,3.071,3.085,3.07,3.041,3.049,3.073,3.043,3.074,3.039,3.034,3.025,3.039,3.04,3.033,3.034,3.052,3.057,3.051,3.073,3.053,3.0,3.073
510,511,73.207,-55.602,-91.379,-4070.464,-7906.206,3.064,3.098,3.07,3.085,3.07,3.041,3.049,3.072,3.043,3.074,3.039,3.034,3.025,3.038,3.039,3.033,3.033,3.052,3.057,3.051,3.073,3.053,3.0,3.074
513,514,73.238,-55.596,-91.391,-4071.731,-7907.53,3.064,3.098,3.07,3.085,3.07,3.041,3.048,3.072,3.043,3.074,3.038,3.035,3.026,3.038,3.039,3.033,3.033,3.052,3.057,3.051,3.073,3.053,3.0,3.075
516,517,73.258,-55.607,-91.353,-4073.647,-7904.06,3.064,3.098,3.07,3.085,3.07,3.041,3.049,3.072,3.042,3.073,3.039,3.035,3.026,3.038,3.039,3.033,3.034,3.052,3.058,3.051,3.073,3.054,3.0,3.075
519,520,73.249,-55.617,-91.286,-4073.862,-7897.727,3.064,3.099,3.071,3.086,3.071,3.041,3.049,3.073,3.043,3.074,3.039,3.035,3.026,3.039,3.04,3.033,3.034,3.053,3.058,3.052,3.074,3.054,3.0,3.075
522,523,73.268,-55.602,-91.275,-4073.809,-7896.914,3.064,3.099,3.072,3.086,3.071,3.041,3.049,3.073,3.044,3.075,3.039,3.035,3.027,3.039,3.041,3.034,3.035,3.053,3.058,3.052,3.074,3.055,3.0,3.074
525,526,73.238,-55.623,-91.207,-4073.663,-7890.418,3.064,3.099,3.072,3.086,3.072,3.042,3.049,3.074,3.044,3.075,3.04,3.035,3.026,3.039,3.041,3.034,3.035,3.053,3.059,3.053,3.075,3.055,3.0,3.074
528,529,73.248,-55.611,-91.192,-4073.409,-7889.252,3.064,3.099,3.072,3.087,3.072,3.041,3.05,3.074,3.044,3.075,3.04,3.036,3.027,3.04,3.041,3.035,3.035,3.054,3.059,3.053,3.075,3.055,3.0,3.075
531,532,73.28,-55.608,-91.133,-4074.932,-7883.485,3.064,3.099,3.072,3.087,3.072,3.042,3.05,3.074,3.045,3.076,3.04,3.036,3.027,3.041,3.042,3.035,3.036,3.054,3.059,3.053,3.075,3.055,3.0,3.074
534,535,73.3,-55.59,-91.138,-4074.739,-7884.103,3.063,3.1,3.073,3.087,3.072,3.042,3.05,3.075,3.045,3.076,3.041,3.036,3.028,3.041,3.042,3.036,3.036,3.054,3.059,3.054,3.076,3.056,3.0,3.073
537,538,73.301,-55.61,-91.082,-4076.258,-7878.951,3.063,3.1,3.074,3.088,3.073,3.043,3.05,3.075,3.046,3.077,3.041,3.037,3.028,3.042,3.043,3.036,3.037,3.055,3.06,3.054,3.076,3.056,3.0,3.073
540,541,73.228,-55.599,-91.069,-4071.399,-7877.818,3.063,3.1,3.074,3.088,3.073,3.042,3.05,3.075,3.046,3.077,3.041,3.036,3.027,3.042,3.043,3.037,3.037,3.054,3.06,3.054,3.077,3.056,3.0,3.072
543,544,73.27,-55.609,-91.002,-4074.498,-7871.323,3.063,3.101,3.074,3.089,3.074,3.043,3.051,3.076,3.047,3.077,3.041,3.036,3.027,3.042,3.043,3.037,3.037,3.055,3.06,3.054,3.077,3.057,3.0,3.072
546,547,73.3,-55.622,-90.979,-4077.054,-7869.242,3.063,3.1,3.074,3.089,3.073,3.043,3.05,3.076,3.046,3.077,3.041,3.035,3.027,3.042,3.043,3.037,3.037,3.054,3.06,3.054,3.077,3.056,3.0,3.073
549,550,73.32,-55.596,-90.934,-4076.276,-7864.664,3.064,3.101,3.074,3.089,3.074,3.043,3.051,3.076,3.046,3.077,3.041,3.035,3.026,3.041,3.043,3.036,3.037,3.055,3.06,3.054,3.077,3.056,3.0,3.074
552,553,73.299,-55.597,-90.891,-4075.233,-7860.433,3.063,3.101,3.075,3.089,3.074,3.043,3.051,3.076,3.047,3.077,3.041,3.035,3.026,3.041,3.043,3.037,3.037,3.054,3.06,3.055,3.077,3.057,3.0,3.072
555,556,73.331,-55.587,-90.791,-4076.266,-7850.72,3.062,3.102,3.076,3.09,3.075,3.044,3.052,3.077,3.048,3.079,3.042,3.035,3.026,3.043,3.044,3.038,3.039,3.055,3.06,3.056,3.078,3.058,3.0,3.071
558,559,73.331,-55.591,-90.756,-4076.521,-7847.276,3.062,3.102,3.076,3.09,3.075,3.044,3.051,3.077,3.048,3.078,3.042,3.035,3.026,3.042,3.044,3.038,3.038,3.055,3.06,3.055,3.078,3.058,3.0,3.071
561,562,73.31,-55.602,-90.749,-4076.22,-7846.71,3.062,3.101,3.076,3.09,3.075,3.043,3.051,3.077,3.048,3.079,3.042,3.034,3.025,3.042,3.044,3.038,3.038,3.055,3.06,3.055,3.078,3.057,3.0,3.07
564,565,73.3,-55.582,-90.716,-4074.13,-7843.452,3.062,3.102,3.076,3.09,3.075,3.043,3.051,3.077,3.047,3.078,3.042,3.035,3.025,3.042,3.044,3.038,3.038,3.055,3.06,3.055,3.078,3.057,3.0,3.071
567,568,73.289,-55.599,-90.759,-4074.778,-7848.542,3.063,3.103,3.077,3.091,3.076,3.044,3.051,3.077,3.049,3.079,3.042,3.034,3.026,3.043,3.046,3.04,3.04,3.055,3.061,3.056,3.079,3.058,3.0,3.071
570,571,73.36,-55.606,-90.645,-4079.253,-7837.373,3.062,3.103,3.077,3.092,3.076,3.044,3.052,3.078,3.049,3.08,3.042,3.034,3.025,3.044,3.046,3.04,3.04,3.056,3.061,3.056,3.08,3.059,3.0,3.07
573,574,73.36,-55.594,-90.672,-4078.41,-7840.323,3.063,3.103,3.078,3.092,3.076,3.044,3.052,3.078,3.05,3.08,3.042,3.034,3.025,3.044,3.046,3.04,3.04,3.056,3.061,3.056,3.08,3.058,3.0,3.07
576,577,73.341,-55.614,-90.646,-4078.802,-7837.792,3.063,3.103,3.078,3.092,3.076,3.044,3.051,3.078,3.049,3.08,3.042,3.034,3.025,3.044,3.046,3.04,3.04,3.055,3.061,3.057,3.08,3.058,3.0,3.07
579,580,73.32,-55.611,-90.613,-4077.44,-7834.376,3.063,3.103,3.078,3.092,3.076,3.044,3.051,3.078,3.049,3.08,3.042,3.034,3.025,3.044,3.046,3.04,3.04,3.056,3.061,3.057,3.08,3.058,3.0,3.069
582,583,73.35,-55.584,-90.605,-4077.127,-7833.802,3.062,3.103,3.078,3.093,3.077,3.044,3.052,3.079,3.05,3.081,3.043,3.034,3.025,3.045,3.047,3.04,3.041,3.056,3.061,3.057,3.08,3.059,3.0,3.069
585,586,73.35,-55.597,-90.588,-4078.034,-7832.228,3.063,3.103,3.078,3.092,3.076,3.044,3.051,3.078,3.049,3.08,3.042,3.035,3.025,3.044,3.046,3.04,3.04,3.056,3.061,3.056,3.08,3.059,3.0,3.071
588,589,73.34,-55.602,-90.604,-4077.894,-7833.833,3.063,3.103,3.078,3.092,3.076,3.044,3.051,3.078,3.049,3.08,3.042,3.034,3.025,3.044,3.046,3.04,3.04,3.055,3.061,3.057,3.08,3.058,3.0,3.07
591,592,73.319,-55.599,-90.609,-4076.509,-7834.325,3.064,3.103,3.078,3.092,3.076,3.043,3.051,3.077,3.049,3.08,3.042,3.034,3.026,3.044,3.046,3.04,3.04,3.056,3.061,3.056,3.08,3.058,3.0,3.071
594,595,73.33,-55.596,-90.582,-4076.852,-7831.955,3.064,3.103,3.078,3.092,3.076,3.043,3.051,3.078,3.049,3.08,3.042,3.035,3.026,3.044,3.046,3.04,3.04,3.056,3.061,3.056,3.08,3.058,3.0,3.071
597,598,73.321,-55.601,-90.571,-4076.716,-7830.671,3.064,3.103,3.078,3.092,3.075,3.043,3.05,3.077,3.049,3.079,3.042,3.034,3.027,3.044,3.046,3.039,3.04,3.056,3.061,3.056,3.08,3.058,3.0,3.072
600,601,73.331,-55.606,-90.544,-4077.648,-7828.021,3.064,3.103,3.077,3.091,3.075,3.043,3.05,3.077,3.048,3.079,3.042,3.035,3.027,3.044,3.045,3.039,3.04,3.055,3.061,3.056,3.079,3.058,3.0,3.072
603,604,73.217,-55.618,-90.806,-4072.176,-7852.356,3.06,3.099,3.073,3.086,3.071,3.039,3.047,3.072,3.044,3.074,3.038,3.031,3.023,3.039,3.041,3.034,3.035,3.051,3.057,3.052,3.075,3.053,3.0,3.069
606,607,73.248,-55.591,-90.743,-4071.946,-7846.623,3.061,3.1,3.073,3.088,3.072,3.04,3.048,3.073,3.045,3.075,3.039,3.032,3.024,3.04,3.042,3.036,3.036,3.052,3.058,3.053,3.076,3.055,3.0,3.07
609,610,73.269,-55.585,-90.734,-4072.649,-7846.163,3.062,3.101,3.074,3.089,3.073,3.041,3.048,3.074,3.045,3.076,3.039,3.032,3.025,3.041,3.043,3.036,3.037,3.052,3.059,3.054,3.077,3.055,3.0,3.07
612,613,73.271,-55.596,-90.624,-4073.574,-7835.385,3.062,3.1,3.074,3.088,3.073,3.041,3.048,3.074,3.045,3.076,3.039,3.033,3.025,3.04,3.042,3.036,3.036,3.053,3.059,3.053,3.076,3.055,3.0,3.072
615,616,73.3,-55.601,-90.674,-4075.594,-7840.853,3.063,3.102,3.076,3.089,3.074,3.041,3.049,3.075,3.046,3.077,3.04,3.033,3.026,3.042,3.044,3.037,3.037,3.054,3.059,3.054,3.078,3.056,3.0,3.072
618,619,73.279,-55.606,-90.007,-4074.764,-7783.568,3.064,3.103,3.074,3.089,3.073,3.042,3.05,3.075,3.043,3.074,3.038,3.031,3.023,3.038,3.041,3.034,3.035,3.052,3.06,3.053,3.078,3.055,3.0,3.075
621,622,73.238,-55.614,-90.198,-4073.059,-7799.975,3.064,3.101,3.072,3.086,3.071,3.04,3.047,3.072,3.041,3.073,3.037,3.031,3.024,3.037,3.038,3.032,3.033,3.051,3.059,3.052,3.076,3.053,3.0,3.075
624,625,73.197,-55.614,-90.281,-4070.759,-7806.993,3.064,3.1,3.071,3.086,3.07,3.039,3.046,3.071,3.04,3.072,3.036,3.03,3.023,3.036,3.038,3.032,3.033,3.05,3.058,3.051,3.075,3.053,3.0,3.075
627,628,73.187,-55.585,-90.34,-4068.059,-7811.779,3.065,3.1,3.071,3.086,3.07,3.039,3.046,3.071,3.04,3.072,3.036,3.031,3.024,3.037,3.038,3.032,3.033,3.051,3.058,3.051,3.075,3.053,3.0,3.076
630,631,73.219,-55.609,-90.314,-4071.638,-7808.981,3.064,3.1,3.072,3.087,3.071,3.039,3.046,3.072,3.042,3.073,3.037,3.031,3.023,3.037,3.039,3.033,3.034,3.051,3.058,3.052,3.076,3.054,3.0,3.074
633,634,73.26,-55.614,-90.295,-4074.249,-7807.168,3.064,3.1,3.073,3.087,3.072,3.04,3.047,3.072,3.042,3.074,3.037,3.031,3.024,3.038,3.04,3.033,3.035,3.051,3.059,3.052,3.076,3.054,3.0,3.074
636,637,73.258,-55.602,-90.284,-4073.262,-7805.776,3.064,3.101,3.074,3.088,3.073,3.04,3.048,3.073,3.043,3.075,3.038,3.032,3.024,3.039,3.041,3.034,3.036,3.052,3.059,3.053,3.077,3.055,3.0,3.074
639,640,73.3,-55.612,-90.287,-4076.387,-7805.728,3.065,3.101,3.074,3.088,3.073,3.041,3.047,3.073,3.043,3.075,3.038,3.032,3.025,3.039,3.041,3.035,3.036,3.053,3.059,3.053,3.077,3.055,3.0,3.074
642,643,73.319,-55.609,-90.274,-4077.182,-7804.453,3.065,3.102,3.075,3.089,3.073,3.041,3.048,3.073,3.044,3.076,3.039,3.033,3.025,3.04,3.041,3.035,3.036,3.053,3.06,3.054,3.077,3.055,3.0,3.074
645,646,73.269,-55.614,-90.238,-4074.798,-7800.89,3.064,3.102,3.075,3.089,3.073,3.041,3.048,3.074,3.044,3.076,3.039,3.033,3.025,3.04,3.042,3.035,3.037,3.053,3.06,3.054,3.078,3.056,3.0,3.074
648,649,73.279,-55.6,-90.226,-4074.314,-7799.707,3.064,3.102,3.075,3.089,3.073,3.041,3.048,3.074,3.044,3.076,3.039,3.033,3.025,3.04,3.042,3.036,3.037,3.053,3.06,3.054,3.078,3.056,3.0,3.074
651,652,73.259,-55.607,-89.973,-4073.696,-7773.935,3.066,3.102,3.075,3.089,3.073,3.04,3.047,3.073,3.043,3.076,3.038,3.032,3.025,3.04,3.042,3.035,3.036,3.053,3.059,3.053,3.078,3.055,3.0,3.076
654,655,73.279,-55.607,-90.227,-4074.844,-7799.402,3.067,3.102,3.075,3.089,3.073,3.041,3.047,3.073,3.043,3.076,3.038,3.033,3.025,3.04,3.041,3.034,3.036,3.053,3.059,3.053,3.078,3.055,3.0,3.076
657,658,73.3,-55.603,-90.173,-4075.739,-7794.501,3.066,3.103,3.076,3.09,3.074,3.041,3.048,3.074,3.044,3.076,3.039,3.032,3.025,3.04,3.042,3.035,3.037,3.053,3.06,3.054,3.078,3.056,3.0,3.075
660,661,73.291,-55.6,-90.132,-4074.984,-7790.151,3.066,3.103,3.076,3.09,3.074,3.041,3.048,3.074,3.045,3.077,3.039,3.033,3.025,3.04,3.042,3.036,3.037,3.053,3.06,3.054,3.078,3.056,3.0,3.075
663,664,73.321,-55.592,-90.099,-4076.078,-7787.138,3.066,3.103,3.077,3.09,3.075,3.042,3.048,3.075,3.045,3.077,3.04,3.033,3.025,3.041,3.043,3.037,3.038,3.054,3.061,3.055,3.079,3.056,3.0,3.074
666,667,73.291,-55.592,-90.047,-4074.377,-7781.904,3.065,3.103,3.077,3.091,3.075,3.042,3.049,3.075,3.046,3.078,3.04,3.033,3.025,3.042,3.043,3.037,3.038,3.054,3.061,3.055,3.079,3.057,3.0,3.073
669,670,73.291,-55.587,-89.96,-4074.062,-7773.478,3.064,3.103,3.076,3.09,3.075,3.042,3.049,3.075,3.045,3.077,3.04,3.033,3.024,3.04,3.042,3.036,3.038,3.054,3.061,3.055,3.079,3.057,3.0,3.073
672,673,73.29,-55.599,-89.829,-4074.867,-7760.11,3.063,3.103,3.077,3.091,3.076,3.042,3.049,3.076,3.046,3.078,3.04,3.032,3.023,3.041,3.043,3.037,3.039,3.053,3.061,3.055,3.079,3.058,3.0,3.072
675,676,73.24,-55.603,-89.813,-4072.364,-7758.381,3.064,3.103,3.077,3.091,3.076,3.042,3.049,3.076,3.046,3.078,3.04,3.032,3.022,3.041,3.043,3.037,3.038,3.053,3.06,3.055,3.079,3.058,3.0,3.072
678,679,73.332,-55.592,-89.769,-4076.717,-7754.265,3.063,3.104,3.077,3.091,3.076,3.042,3.049,3.076,3.047,3.078,3.04,3.032,3.022,3.041,3.043,3.038,3.039,3.053,3.061,3.056,3.08,3.058,3.0,3.071
681,682,73.27,-55.613,-89.74,-4074.781,-7751.45,3.064,3.104,3.077,3.092,3.076,3.042,3.049,3.076,3.047,3.078,3.04,3.031,3.023,3.041,3.043,3.037,3.039,3.054,3.06,3.056,3.08,3.058,3.0,3.071
684,685,73.282,-55.611,-89.722,-4075.287,-7749.655,3.064,3.104,3.078,3.092,3.076,3.042,3.049,3.076,3.047,3.078,3.04,3.032,3.023,3.042,3.044,3.038,3.039,3.053,3.061,3.056,3.08,3.058,3.0,3.072
687,688,73.302,-55.607,-89.7,-4076.085,-7747.577,3.063,3.104,3.078,3.092,3.077,3.042,3.049,3.077,3.047,3.079,3.041,3.031,3.022,3.042,3.044,3.038,3.039,3.054,3.061,3.056,3.08,3.058,3.0,3.071
690,691,73.321,-55.608,-89.678,-4077.234,-7745.465,3.063,3.104,3.078,3.092,3.077,3.042,3.049,3.077,3.047,3.079,3.04,3.031,3.022,3.042,3.044,3.038,3.04,3.054,3.061,3.056,3.08,3.059,3.0,3.071
693,694,73.312,-55.616,-89.626,-4077.307,-7740.375,3.063,3.104,3.079,3.093,3.077,3.042,3.05,3.077,3.048,3.079,3.041,3.031,3.022,3.042,3.044,3.038,3.04,3.054,3.061,3.057,3.081,3.059,3.0,3.07
696,697,73.32,-55.606,-89.586,-4077.077,-7736.658,3.063,3.104,3.079,3.093,3.077,3.043,3.05,3.077,3.048,3.079,3.041,3.031,3.021,3.042,3.044,3.039,3.04,3.054,3.061,3.057,3.081,3.059,3.0,3.07
699,700,73.342,-55.603,-89.581,-4077.986,-7735.811,3.063,3.104,3.078,3.092,3.077,3.042,3.049,3.077,3.047,3.079,3.041,3.032,3.022,3.042,3.044,3.038,3.04,3.054,3.061,3.057,3.08,3.059,3.0,3.07
700,701,73.312,-55.603,-89.57,-4076.358,-7734.895,3.063,3.104,3.079,3.093,3.077,3.043,3.05,3.077,3.048,3.079,3.041,3.032,3.022,3.043,3.045,3.039,3.04,3.054,3.062,3.057,3.081,3.059,3.0,3.07