File: data/#8 (45도_충전0.5C_방전1.5C)_충방전싸이클_result.csv
,Cycle,Voltage(V),Current(A),Capacity(Ah),Power(W),wattHour(Wh),CELL1,CELL2,CELL3,CELL4,CELL5,CELL6,CELL7,CELL8,CELL9,CELL10,CELL11,CELL12,CELL13,CELL14,CELL15,CELL16,CELL17,CELL18,CELL19,CELL20,CELL21,CELL22,CELL23,CELL24
0,1,73.087,-166.781,-94.446,-12189.607,-7980.225,3.0,3.019,3.045,3.038,3.076,3.04,3.091,3.084,3.062,3.068,3.094,3.019,3.013,3.042,3.047,3.025,3.068,3.061,3.07,3.083,3.023,3.053,3.099,3.024
3,4,73.024,-166.811,-94.47,-12181.172,-7985.596,3.0,3.016,3.044,3.038,3.074,3.039,3.087,3.08,3.06,3.065,3.091,3.02,3.011,3.038,3.045,3.021,3.061,3.055,3.065,3.08,3.022,3.052,3.097,3.024
6,7,73.014,-166.817,-94.601,-12180.06,-7998.229,3.0,3.017,3.045,3.038,3.073,3.039,3.085,3.078,3.06,3.064,3.089,3.019,3.011,3.038,3.045,3.021,3.06,3.053,3.065,3.079,3.022,3.053,3.096,3.024
9,10,72.932,-166.82,-94.548,-12166.492,-7995.129,3.0,3.013,3.044,3.038,3.071,3.037,3.082,3.075,3.057,3.062,3.086,3.018,3.008,3.035,3.043,3.017,3.054,3.048,3.06,3.076,3.02,3.051,3.094,3.023
12,13,72.87,-166.82,-94.56,-12156.12,-7997.738,3.0,3.012,3.044,3.038,3.07,3.036,3.079,3.072,3.056,3.06,3.083,3.018,3.007,3.032,3.042,3.015,3.051,3.044,3.057,3.074,3.02,3.049,3.092,3.022
15,16,72.829,-166.798,-94.582,-12147.682,-7999.8,3.0,3.01,3.042,3.035,3.067,3.034,3.076,3.069,3.053,3.057,3.081,3.018,3.005,3.029,3.039,3.011,3.047,3.041,3.054,3.071,3.017,3.047,3.09,3.02
18,19,72.79,-166.808,-94.633,-12141.964,-8005.291,3.0,3.007,3.04,3.034,3.066,3.032,3.073,3.066,3.05,3.054,3.078,3.018,3.004,3.027,3.037,3.008,3.043,3.036,3.05,3.068,3.015,3.044,3.088,3.02
21,22,72.73,-166.811,-94.692,-12132.127,-8010.862,3.0,3.005,3.038,3.032,3.063,3.029,3.069,3.062,3.047,3.051,3.074,3.017,3.002,3.023,3.034,3.003,3.038,3.032,3.045,3.064,3.011,3.041,3.085,3.018
24,25,72.661,-166.786,-94.747,-12118.789,-8017.136,3.0,3.004,3.038,3.031,3.062,3.028,3.068,3.06,3.047,3.05,3.073,3.017,3.002,3.022,3.033,3.003,3.036,3.03,3.044,3.063,3.011,3.04,3.084,3.018
27,28,72.681,-166.773,-94.728,-12121.207,-8016.234,3.0,3.005,3.039,3.033,3.062,3.029,3.067,3.06,3.046,3.049,3.072,3.017,3.001,3.022,3.034,3.003,3.036,3.029,3.043,3.062,3.011,3.04,3.083,3.017
30,31,72.651,-166.79,-94.741,-12117.391,-8018.005,3.0,3.003,3.038,3.031,3.061,3.027,3.065,3.058,3.044,3.048,3.07,3.018,3.001,3.02,3.032,3.0,3.033,3.026,3.041,3.06,3.009,3.038,3.081,3.017
33,34,72.65,-166.794,-94.69,-12117.603,-8014.001,3.002,3.004,3.039,3.032,3.061,3.028,3.064,3.058,3.045,3.048,3.07,3.019,3.003,3.021,3.032,3.0,3.033,3.027,3.041,3.06,3.01,3.039,3.081,3.017
36,37,72.67,-166.807,-94.68,-12121.82,-8013.632,3.004,3.005,3.04,3.033,3.062,3.028,3.064,3.057,3.045,3.048,3.069,3.02,3.004,3.021,3.033,3.0,3.033,3.027,3.04,3.061,3.01,3.039,3.081,3.019
39,40,72.65,-166.772,-94.659,-12116.032,-8012.839,3.004,3.005,3.04,3.034,3.062,3.028,3.064,3.057,3.045,3.048,3.069,3.021,3.004,3.021,3.033,3.0,3.033,3.027,3.04,3.06,3.011,3.039,3.081,3.019
42,43,72.682,-166.829,-94.642,-12125.375,-8012.047,3.005,3.006,3.041,3.034,3.062,3.029,3.063,3.056,3.045,3.048,3.069,3.022,3.004,3.021,3.034,3.0,3.032,3.026,3.039,3.06,3.011,3.039,3.081,3.02
45,46,72.672,-166.805,-94.637,-12122.035,-8012.313,3.008,3.007,3.042,3.036,3.063,3.03,3.063,3.057,3.045,3.049,3.069,3.023,3.005,3.021,3.034,3.0,3.033,3.026,3.039,3.06,3.012,3.04,3.081,3.021
48,49,72.699,-166.807,-94.588,-12126.714,-8007.621,3.009,3.007,3.042,3.036,3.063,3.03,3.063,3.057,3.045,3.049,3.069,3.023,3.006,3.021,3.034,3.0,3.033,3.027,3.039,3.06,3.012,3.04,3.081,3.022
51,52,72.7,-166.782,-94.589,-12125.083,-8008.808,3.01,3.008,3.043,3.037,3.063,3.03,3.063,3.057,3.045,3.049,3.068,3.023,3.006,3.022,3.034,3.0,3.032,3.027,3.039,3.06,3.012,3.04,3.081,3.022
54,55,72.699,-166.814,-94.562,-12127.241,-8006.038,3.011,3.008,3.044,3.037,3.063,3.03,3.062,3.056,3.046,3.049,3.068,3.024,3.006,3.022,3.035,3.0,3.032,3.027,3.039,3.059,3.013,3.041,3.08,3.022
57,58,72.659,-166.806,-94.728,-12119.994,-8017.551,3.008,3.007,3.042,3.036,3.062,3.03,3.062,3.056,3.045,3.049,3.07,3.023,3.004,3.023,3.034,3.0,3.032,3.025,3.041,3.06,3.012,3.042,3.082,3.022
60,61,72.729,-166.819,-94.661,-12132.548,-8013.543,3.012,3.008,3.044,3.038,3.063,3.031,3.062,3.056,3.046,3.05,3.07,3.025,3.007,3.023,3.035,3.0,3.032,3.025,3.04,3.06,3.013,3.042,3.082,3.024
63,64,72.747,-166.782,-94.569,-12132.869,-8006.264,3.014,3.009,3.045,3.039,3.064,3.031,3.062,3.056,3.046,3.05,3.069,3.026,3.008,3.023,3.035,3.0,3.031,3.025,3.039,3.06,3.014,3.042,3.082,3.025
66,67,72.716,-166.797,-94.516,-12128.803,-8002.078,3.016,3.01,3.046,3.04,3.065,3.031,3.062,3.057,3.047,3.05,3.068,3.026,3.009,3.023,3.036,3.0,3.032,3.026,3.04,3.06,3.014,3.042,3.082,3.026
69,70,72.726,-166.821,-94.455,-12132.155,-7997.622,3.016,3.01,3.048,3.041,3.066,3.032,3.062,3.056,3.047,3.05,3.068,3.026,3.009,3.023,3.036,3.0,3.033,3.027,3.039,3.06,3.015,3.042,3.082,3.026
72,73,72.746,-166.783,-94.419,-12132.753,-7994.014,3.017,3.011,3.048,3.041,3.066,3.032,3.062,3.057,3.047,3.05,3.067,3.026,3.01,3.023,3.037,3.0,3.033,3.027,3.039,3.06,3.015,3.042,3.081,3.026
75,76,72.736,-166.816,-94.384,-12133.55,-7992.068,3.018,3.011,3.05,3.043,3.067,3.033,3.061,3.056,3.047,3.051,3.067,3.027,3.01,3.024,3.038,3.0,3.034,3.028,3.038,3.06,3.015,3.042,3.081,3.027
78,79,72.746,-166.848,-94.355,-12137.59,-7989.399,3.019,3.012,3.05,3.043,3.067,3.033,3.06,3.056,3.047,3.051,3.066,3.027,3.01,3.024,3.037,3.0,3.034,3.028,3.039,3.06,3.015,3.042,3.081,3.026
81,82,72.708,-166.817,-94.421,-12128.875,-7995.379,3.017,3.011,3.049,3.042,3.066,3.032,3.06,3.056,3.047,3.051,3.066,3.026,3.009,3.024,3.037,3.0,3.033,3.027,3.039,3.059,3.015,3.042,3.081,3.025
84,85,72.778,-166.846,-94.346,-12142.789,-7988.851,3.019,3.012,3.05,3.043,3.067,3.033,3.06,3.056,3.047,3.051,3.065,3.028,3.01,3.024,3.038,3.0,3.034,3.028,3.038,3.06,3.016,3.042,3.081,3.027
87,88,72.727,-166.827,-94.344,-12132.904,-7989.923,3.02,3.013,3.051,3.044,3.067,3.034,3.059,3.056,3.048,3.052,3.065,3.028,3.011,3.024,3.038,3.0,3.034,3.028,3.038,3.06,3.016,3.042,3.081,3.027
90,91,72.748,-166.788,-94.298,-12133.57,-7985.998,3.022,3.014,3.052,3.044,3.068,3.034,3.059,3.056,3.047,3.052,3.065,3.028,3.012,3.024,3.039,3.0,3.035,3.028,3.038,3.06,3.016,3.043,3.081,3.028
93,94,72.761,-166.799,-94.462,-12136.47,-7999.85,3.021,3.012,3.05,3.043,3.066,3.033,3.058,3.055,3.047,3.052,3.066,3.031,3.011,3.024,3.037,3.0,3.032,3.025,3.038,3.059,3.015,3.043,3.081,3.029
96,97,72.794,-166.789,-94.408,-12141.313,-7996.979,3.023,3.013,3.052,3.045,3.067,3.034,3.058,3.055,3.048,3.053,3.066,3.032,3.013,3.025,3.039,3.0,3.032,3.026,3.038,3.059,3.017,3.044,3.081,3.029
99,100,72.764,-166.797,-94.358,-12136.763,-7993.265,3.025,3.014,3.054,3.046,3.068,3.035,3.058,3.056,3.048,3.053,3.065,3.032,3.014,3.026,3.04,3.0,3.033,3.027,3.038,3.06,3.017,3.044,3.081,3.03
102,103,72.793,-166.799,-94.349,-12141.852,-7992.749,3.026,3.014,3.054,3.047,3.069,3.035,3.058,3.056,3.048,3.054,3.065,3.032,3.015,3.026,3.04,3.0,3.033,3.027,3.038,3.06,3.018,3.045,3.081,3.03
105,106,72.814,-166.807,-94.286,-12145.907,-7987.058,3.027,3.015,3.055,3.048,3.07,3.035,3.058,3.056,3.049,3.054,3.065,3.033,3.015,3.027,3.041,3.0,3.033,3.028,3.039,3.06,3.018,3.045,3.081,3.03
108,109,72.772,-166.804,-94.225,-12138.72,-7981.862,3.028,3.015,3.056,3.048,3.07,3.036,3.058,3.057,3.049,3.054,3.064,3.032,3.015,3.027,3.041,3.0,3.033,3.028,3.038,3.06,3.018,3.045,3.081,3.03
111,112,72.791,-166.818,-94.192,-12142.813,-7978.621,3.028,3.016,3.056,3.049,3.07,3.036,3.057,3.057,3.049,3.054,3.063,3.032,3.015,3.027,3.042,3.0,3.034,3.028,3.039,3.06,3.018,3.045,3.081,3.03
114,115,72.83,-166.797,-94.167,-12147.867,-7977.312,3.029,3.016,3.058,3.049,3.071,3.036,3.057,3.057,3.049,3.055,3.063,3.032,3.016,3.027,3.042,3.0,3.034,3.029,3.039,3.06,3.018,3.046,3.08,3.03
117,118,72.82,-166.758,-94.131,-12143.361,-7973.596,3.029,3.016,3.058,3.049,3.071,3.036,3.057,3.057,3.049,3.055,3.062,3.031,3.015,3.027,3.042,3.0,3.033,3.028,3.038,3.06,3.018,3.045,3.08,3.029
120,121,72.832,-166.816,-94.096,-12149.52,-7972.132,3.03,3.017,3.059,3.05,3.072,3.037,3.057,3.057,3.049,3.055,3.062,3.031,3.016,3.028,3.043,3.0,3.034,3.029,3.038,3.06,3.019,3.046,3.08,3.029
123,124,72.749,-166.799,-94.061,-12134.436,-7968.237,3.03,3.017,3.059,3.05,3.072,3.037,3.057,3.057,3.049,3.055,3.062,3.03,3.016,3.028,3.043,3.0,3.034,3.028,3.039,3.06,3.019,3.046,3.08,3.029
126,127,72.842,-166.802,-94.035,-12150.193,-7966.935,3.03,3.017,3.06,3.05,3.073,3.037,3.056,3.057,3.049,3.055,3.061,3.029,3.015,3.028,3.043,3.0,3.034,3.028,3.039,3.06,3.02,3.046,3.08,3.028
129,130,72.799,-166.836,-93.96,-12145.479,-7959.23,3.03,3.017,3.06,3.05,3.073,3.037,3.056,3.057,3.049,3.056,3.06,3.028,3.015,3.028,3.044,3.0,3.034,3.029,3.039,3.06,3.019,3.046,3.079,3.027
132,133,72.819,-166.803,-93.928,-12146.362,-7956.142,3.03,3.017,3.061,3.05,3.072,3.037,3.056,3.057,3.049,3.056,3.06,3.027,3.014,3.028,3.044,3.0,3.034,3.028,3.039,3.06,3.019,3.045,3.079,3.026
135,136,72.828,-166.828,-93.858,-12149.826,-7949.53,3.03,3.017,3.061,3.05,3.073,3.038,3.056,3.057,3.049,3.056,3.06,3.026,3.014,3.028,3.044,3.0,3.034,3.028,3.039,3.06,3.019,3.046,3.079,3.026
138,139,72.817,-166.784,-93.839,-12144.726,-7947.852,3.03,3.016,3.061,3.05,3.073,3.037,3.056,3.057,3.049,3.056,3.059,3.025,3.014,3.028,3.044,3.0,3.034,3.028,3.039,3.06,3.02,3.046,3.078,3.025
141,142,72.787,-166.798,-93.795,-12140.758,-7943.754,3.03,3.016,3.062,3.05,3.073,3.038,3.056,3.057,3.048,3.057,3.059,3.026,3.014,3.028,3.044,3.0,3.034,3.027,3.039,3.06,3.02,3.046,3.079,3.025
144,145,72.816,-166.801,-93.781,-12145.771,-7942.566,3.031,3.016,3.062,3.05,3.073,3.037,3.055,3.057,3.048,3.057,3.058,3.025,3.014,3.029,3.045,3.0,3.034,3.027,3.039,3.061,3.02,3.046,3.078,3.025
147,148,72.795,-166.804,-93.731,-12142.516,-7938.18,3.031,3.016,3.063,3.05,3.073,3.037,3.055,3.057,3.048,3.057,3.057,3.025,3.014,3.029,3.045,3.0,3.034,3.026,3.04,3.06,3.02,3.046,3.078,3.024
150,151,72.795,-166.817,-93.716,-12143.529,-7937.056,3.031,3.016,3.063,3.05,3.073,3.037,3.055,3.056,3.048,3.057,3.057,3.024,3.014,3.029,3.046,3.0,3.034,3.025,3.039,3.06,3.02,3.045,3.078,3.025
153,154,72.816,-166.796,-93.706,-12145.362,-7936.544,3.031,3.016,3.064,3.05,3.073,3.037,3.054,3.056,3.047,3.058,3.056,3.024,3.014,3.029,3.046,3.0,3.034,3.025,3.039,3.06,3.02,3.045,3.078,3.025
156,157,72.766,-166.772,-93.646,-12135.306,-7930.645,3.031,3.015,3.064,3.05,3.073,3.037,3.053,3.056,3.047,3.057,3.056,3.023,3.013,3.029,3.046,3.0,3.033,3.024,3.039,3.06,3.02,3.045,3.077,3.024
159,160,72.796,-166.776,-93.642,-12140.53,-7930.274,3.03,3.015,3.063,3.049,3.073,3.036,3.053,3.055,3.046,3.058,3.055,3.023,3.013,3.029,3.046,3.0,3.033,3.023,3.039,3.06,3.02,3.045,3.077,3.024
162,163,72.796,-166.816,-93.629,-12143.591,-7928.978,3.031,3.015,3.064,3.049,3.073,3.036,3.053,3.055,3.046,3.058,3.055,3.022,3.013,3.029,3.046,3.0,3.032,3.022,3.038,3.06,3.02,3.046,3.077,3.024
165,166,72.757,-166.797,-93.607,-12135.695,-7927.562,3.03,3.015,3.064,3.05,3.073,3.035,3.052,3.054,3.045,3.058,3.055,3.022,3.012,3.029,3.047,3.0,3.032,3.022,3.038,3.061,3.02,3.045,3.077,3.024
168,169,72.777,-166.79,-93.583,-12138.515,-7924.661,3.03,3.014,3.063,3.049,3.073,3.035,3.052,3.054,3.045,3.058,3.054,3.021,3.012,3.029,3.046,3.0,3.031,3.021,3.038,3.06,3.02,3.046,3.076,3.024
171,172,72.802,-166.801,-93.556,-12143.452,-7923.774,3.03,3.015,3.064,3.05,3.073,3.035,3.051,3.054,3.044,3.058,3.054,3.021,3.011,3.029,3.046,3.0,3.031,3.019,3.037,3.06,3.02,3.046,3.076,3.023
174,175,72.824,-166.816,-93.56,-12148.144,-7924.071,3.03,3.015,3.064,3.05,3.073,3.035,3.05,3.053,3.044,3.058,3.054,3.022,3.011,3.029,3.046,3.0,3.03,3.018,3.036,3.06,3.02,3.046,3.076,3.024
177,178,72.772,-166.776,-93.547,-12136.688,-7922.925,3.031,3.014,3.064,3.049,3.072,3.035,3.05,3.053,3.044,3.058,3.054,3.022,3.012,3.029,3.046,3.0,3.029,3.017,3.036,3.06,3.02,3.046,3.076,3.024
180,181,72.759,-166.86,-93.516,-12140.538,-7919.085,3.031,3.015,3.063,3.049,3.072,3.035,3.05,3.053,3.044,3.059,3.054,3.023,3.013,3.03,3.046,3.0,3.029,3.018,3.036,3.061,3.02,3.047,3.076,3.025
183,184,72.759,-166.836,-93.493,-12138.764,-7917.954,3.031,3.015,3.064,3.05,3.072,3.035,3.05,3.053,3.044,3.059,3.054,3.024,3.012,3.029,3.046,3.0,3.028,3.016,3.036,3.06,3.02,3.046,3.076,3.026
186,187,72.806,-166.752,-93.466,-12140.524,-7914.328,3.032,3.015,3.063,3.05,3.072,3.035,3.049,3.053,3.044,3.059,3.055,3.024,3.013,3.03,3.046,3.0,3.028,3.016,3.036,3.061,3.02,3.047,3.076,3.026
189,190,72.84,-166.826,-93.45,-12151.55,-7914.398,3.032,3.016,3.064,3.05,3.072,3.036,3.049,3.053,3.044,3.059,3.055,3.024,3.013,3.03,3.046,3.0,3.028,3.015,3.036,3.06,3.021,3.047,3.076,3.026
192,193,72.795,-166.816,-93.672,-12143.359,-7931.089,3.027,3.013,3.06,3.05,3.068,3.034,3.049,3.052,3.045,3.056,3.06,3.027,3.01,3.028,3.044,3.0,3.025,3.012,3.036,3.06,3.021,3.049,3.078,3.026
195,196,72.793,-166.784,-93.591,-12140.723,-7924.167,3.03,3.014,3.061,3.051,3.069,3.035,3.05,3.053,3.046,3.057,3.062,3.031,3.012,3.029,3.046,3.0,3.024,3.011,3.036,3.061,3.021,3.05,3.079,3.029
198,199,72.813,-166.749,-93.555,-12141.513,-7921.815,3.031,3.014,3.062,3.052,3.069,3.036,3.05,3.053,3.046,3.058,3.062,3.032,3.014,3.029,3.046,3.0,3.023,3.01,3.036,3.061,3.022,3.051,3.08,3.031
201,202,72.842,-166.793,-93.496,-12149.547,-7916.157,3.032,3.015,3.062,3.052,3.069,3.036,3.05,3.053,3.046,3.058,3.063,3.033,3.014,3.03,3.046,3.0,3.023,3.009,3.036,3.062,3.022,3.051,3.08,3.032
204,205,72.851,-166.791,-93.478,-12150.897,-7914.783,3.033,3.015,3.062,3.053,3.07,3.037,3.05,3.053,3.047,3.058,3.063,3.034,3.015,3.03,3.046,3.0,3.023,3.009,3.036,3.062,3.023,3.052,3.081,3.033
207,208,72.841,-166.811,-93.424,-12150.591,-7909.154,3.034,3.015,3.063,3.053,3.07,3.037,3.051,3.054,3.047,3.058,3.064,3.034,3.015,3.03,3.046,3.0,3.023,3.009,3.037,3.062,3.023,3.053,3.081,3.033
210,211,72.852,-166.787,-93.399,-12150.74,-7907.082,3.035,3.015,3.063,3.054,3.069,3.037,3.05,3.053,3.048,3.059,3.063,3.033,3.015,3.03,3.047,3.0,3.022,3.009,3.037,3.062,3.024,3.053,3.081,3.034
213,214,72.873,-166.82,-93.364,-12156.643,-7904.414,3.036,3.016,3.063,3.054,3.07,3.037,3.05,3.053,3.048,3.059,3.064,3.034,3.015,3.03,3.047,3.0,3.022,3.007,3.037,3.062,3.024,3.054,3.082,3.035
216,217,72.852,-166.799,-93.353,-12151.624,-7903.121,3.037,3.016,3.063,3.055,3.07,3.038,3.05,3.053,3.048,3.059,3.064,3.034,3.016,3.031,3.048,3.0,3.022,3.008,3.037,3.062,3.024,3.054,3.082,3.036
219,220,72.843,-166.763,-93.312,-12147.472,-7899.714,3.037,3.016,3.064,3.055,3.07,3.038,3.049,3.053,3.048,3.059,3.064,3.034,3.015,3.031,3.048,3.0,3.022,3.007,3.036,3.062,3.025,3.054,3.082,3.036
222,223,72.863,-166.813,-93.264,-12154.534,-7894.65,3.037,3.016,3.064,3.055,3.07,3.038,3.05,3.053,3.048,3.059,3.064,3.034,3.015,3.031,3.048,3.0,3.022,3.007,3.037,3.062,3.025,3.054,3.082,3.036
225,226,72.853,-166.815,-93.24,-12153.014,-7892.785,3.037,3.016,3.064,3.056,3.07,3.037,3.049,3.053,3.048,3.059,3.064,3.033,3.015,3.031,3.048,3.0,3.022,3.006,3.037,3.062,3.025,3.054,3.083,3.036
228,229,72.873,-166.817,-93.175,-12156.448,-7886.186,3.037,3.016,3.064,3.056,3.07,3.038,3.049,3.053,3.048,3.06,3.065,3.034,3.015,3.031,3.048,3.0,3.022,3.006,3.037,3.062,3.025,3.054,3.083,3.036
231,232,72.854,-166.765,-93.17,-12149.516,-7886.494,3.038,3.016,3.065,3.057,3.071,3.038,3.048,3.052,3.049,3.059,3.064,3.033,3.015,3.031,3.049,3.0,3.022,3.005,3.036,3.062,3.026,3.055,3.083,3.036
234,235,72.853,-166.796,-93.127,-12151.512,-7881.469,3.039,3.016,3.065,3.057,3.071,3.038,3.049,3.053,3.049,3.06,3.065,3.034,3.015,3.032,3.049,3.0,3.022,3.006,3.037,3.063,3.026,3.055,3.084,3.037
237,238,72.865,-166.822,-93.143,-12155.457,-7883.702,3.039,3.016,3.066,3.057,3.07,3.038,3.048,3.052,3.049,3.06,3.065,3.034,3.015,3.031,3.048,3.0,3.021,3.004,3.036,3.062,3.026,3.055,3.084,3.036
240,241,72.854,-166.788,-93.06,-12151.129,-7874.668,3.039,3.016,3.066,3.058,3.071,3.038,3.048,3.052,3.05,3.06,3.066,3.034,3.016,3.032,3.049,3.0,3.022,3.005,3.037,3.063,3.026,3.055,3.084,3.037
243,244,72.846,-166.749,-93.051,-12146.998,-7874.993,3.039,3.016,3.066,3.058,3.071,3.037,3.047,3.051,3.049,3.06,3.065,3.033,3.015,3.031,3.049,3.0,3.02,3.003,3.036,3.062,3.026,3.056,3.084,3.036
246,247,72.825,-166.762,-93.018,-12144.504,-7871.579,3.039,3.016,3.066,3.058,3.071,3.037,3.047,3.051,3.049,3.06,3.065,3.033,3.015,3.032,3.049,3.0,3.02,3.003,3.035,3.062,3.026,3.056,3.084,3.036
249,250,72.869,-166.833,-92.971,-12156.86,-7867.456,3.038,3.016,3.066,3.059,3.071,3.037,3.046,3.051,3.05,3.06,3.065,3.032,3.014,3.031,3.049,3.0,3.02,3.002,3.035,3.062,3.026,3.056,3.084,3.035
252,253,72.869,-166.765,-92.987,-12151.934,-7868.513,3.04,3.017,3.067,3.059,3.071,3.038,3.047,3.051,3.05,3.06,3.066,3.034,3.015,3.032,3.049,3.0,3.02,3.002,3.035,3.062,3.027,3.056,3.084,3.036
255,256,72.869,-166.789,-92.947,-12153.798,-7865.246,3.04,3.016,3.067,3.059,3.071,3.037,3.046,3.05,3.05,3.06,3.066,3.033,3.015,3.032,3.05,3.0,3.019,3.001,3.035,3.062,3.027,3.056,3.084,3.035
258,259,72.869,-166.803,-92.916,-12154.792,-7861.874,3.04,3.016,3.068,3.06,3.072,3.037,3.046,3.051,3.05,3.06,3.066,3.034,3.015,3.032,3.05,3.0,3.019,3.001,3.034,3.062,3.027,3.057,3.084,3.035
261,262,72.83,-166.806,-92.884,-12148.42,-7858.858,3.039,3.016,3.068,3.06,3.071,3.037,3.046,3.05,3.05,3.06,3.066,3.033,3.015,3.032,3.05,3.0,3.019,3.0,3.034,3.063,3.027,3.057,3.085,3.035
264,265,72.861,-166.812,-92.868,-12154.063,-7857.436,3.04,3.017,3.069,3.061,3.072,3.038,3.046,3.051,3.051,3.061,3.067,3.033,3.015,3.033,3.051,3.001,3.019,3.0,3.035,3.063,3.028,3.058,3.085,3.034
267,268,72.84,-166.782,-92.784,-12148.436,-7849.413,3.039,3.017,3.069,3.061,3.072,3.037,3.046,3.051,3.051,3.061,3.067,3.032,3.014,3.033,3.051,3.001,3.02,3.0,3.034,3.064,3.029,3.058,3.085,3.034
270,271,72.859,-166.756,-92.741,-12149.658,-7844.767,3.038,3.017,3.068,3.061,3.072,3.037,3.045,3.051,3.051,3.061,3.067,3.031,3.013,3.033,3.051,3.001,3.02,3.0,3.034,3.064,3.029,3.058,3.085,3.033
273,274,72.857,-166.792,-92.675,-12151.929,-7837.446,3.037,3.016,3.068,3.061,3.072,3.036,3.045,3.05,3.051,3.061,3.067,3.029,3.012,3.033,3.051,3.001,3.019,3.0,3.035,3.064,3.028,3.058,3.085,3.032
276,277,72.846,-166.817,-92.598,-12151.915,-7829.859,3.036,3.017,3.068,3.061,3.072,3.037,3.045,3.05,3.051,3.061,3.068,3.028,3.012,3.033,3.052,3.002,3.02,3.0,3.035,3.064,3.029,3.059,3.086,3.032
279,280,72.846,-166.792,-92.564,-12150.097,-7826.188,3.036,3.017,3.069,3.062,3.073,3.037,3.046,3.05,3.052,3.061,3.068,3.028,3.012,3.034,3.052,3.002,3.02,3.0,3.035,3.064,3.029,3.059,3.086,3.032
282,283,72.875,-166.771,-92.52,-12153.415,-7822.233,3.036,3.018,3.069,3.062,3.073,3.037,3.046,3.051,3.052,3.062,3.069,3.028,3.013,3.034,3.053,3.002,3.021,3.0,3.036,3.065,3.03,3.06,3.086,3.032
285,286,72.865,-166.814,-92.473,-12154.925,-7817.006,3.036,3.018,3.069,3.062,3.073,3.037,3.046,3.051,3.052,3.062,3.069,3.027,3.012,3.035,3.052,3.003,3.021,3.0,3.035,3.065,3.03,3.06,3.087,3.032
288,289,72.916,-166.822,-92.406,-12164.046,-7811.082,3.037,3.019,3.07,3.064,3.074,3.038,3.046,3.051,3.053,3.063,3.069,3.027,3.013,3.035,3.053,3.004,3.021,3.0,3.036,3.066,3.031,3.061,3.087,3.032
291,292,72.999,-166.79,-92.437,-12175.526,-7811.745,3.04,3.022,3.07,3.065,3.074,3.04,3.05,3.055,3.057,3.065,3.076,3.033,3.016,3.039,3.056,3.009,3.028,3.0,3.042,3.07,3.036,3.066,3.092,3.038
294,295,73.009,-166.79,-92.555,-12177.168,-7823.759,3.044,3.024,3.073,3.068,3.077,3.042,3.053,3.057,3.06,3.068,3.079,3.037,3.019,3.041,3.059,3.011,3.028,3.0,3.043,3.072,3.039,3.069,3.095,3.042
297,298,73.041,-166.821,-92.474,-12184.771,-7817.321,3.046,3.026,3.075,3.07,3.078,3.044,3.055,3.058,3.062,3.07,3.081,3.04,3.021,3.042,3.061,3.012,3.029,3.0,3.044,3.074,3.041,3.07,3.097,3.044
300,301,73.111,-166.77,-92.413,-12192.769,-7811.828,3.047,3.026,3.076,3.071,3.079,3.045,3.056,3.059,3.063,3.071,3.082,3.041,3.022,3.043,3.062,3.013,3.029,3.0,3.044,3.075,3.042,3.072,3.098,3.045
303,304,73.112,-166.823,-92.337,-12196.682,-7805.15,3.048,3.027,3.078,3.073,3.08,3.046,3.056,3.06,3.064,3.072,3.083,3.042,3.023,3.044,3.063,3.014,3.029,3.0,3.045,3.076,3.043,3.073,3.099,3.047
306,307,73.155,-166.819,-92.284,-12203.692,-7800.584,3.05,3.028,3.079,3.074,3.081,3.047,3.057,3.061,3.065,3.073,3.084,3.043,3.024,3.045,3.064,3.016,3.03,3.0,3.045,3.077,3.044,3.074,3.1,3.048
309,310,73.145,-166.788,-92.267,-12199.656,-7798.776,3.05,3.028,3.079,3.074,3.082,3.047,3.057,3.061,3.065,3.073,3.084,3.043,3.025,3.046,3.065,3.015,3.029,3.0,3.045,3.077,3.044,3.074,3.1,3.048
312,313,73.184,-166.76,-92.203,-12204.252,-7793.031,3.051,3.029,3.08,3.075,3.082,3.047,3.058,3.061,3.066,3.073,3.085,3.044,3.026,3.046,3.065,3.016,3.03,3.0,3.046,3.078,3.045,3.076,3.101,3.049
315,316,73.195,-166.793,-92.153,-12208.469,-7788.454,3.052,3.03,3.081,3.076,3.083,3.048,3.058,3.061,3.067,3.074,3.086,3.045,3.026,3.047,3.066,3.017,3.03,3.0,3.046,3.078,3.046,3.076,3.101,3.05
318,319,73.237,-166.814,-92.109,-12216.939,-7784.136,3.052,3.03,3.082,3.076,3.083,3.049,3.058,3.062,3.067,3.075,3.086,3.045,3.026,3.048,3.066,3.017,3.03,3.0,3.047,3.078,3.046,3.076,3.102,3.05
321,322,73.185,-166.804,-92.075,-12207.528,-7780.633,3.052,3.03,3.081,3.076,3.083,3.048,3.058,3.061,3.067,3.075,3.086,3.044,3.026,3.048,3.066,3.017,3.03,3.0,3.046,3.078,3.046,3.077,3.102,3.05
324,325,73.248,-166.807,-91.997,-12218.277,-7773.686,3.053,3.031,3.082,3.077,3.084,3.049,3.058,3.062,3.068,3.075,3.087,3.044,3.027,3.048,3.067,3.018,3.03,3.0,3.047,3.079,3.046,3.077,3.102,3.05
327,328,73.227,-166.814,-91.954,-12215.333,-7769.724,3.051,3.031,3.083,3.078,3.084,3.05,3.059,3.062,3.068,3.075,3.087,3.042,3.026,3.049,3.067,3.018,3.031,3.0,3.047,3.079,3.047,3.078,3.102,3.049
330,331,73.198,-166.827,-91.889,-12211.323,-7763.126,3.051,3.032,3.083,3.078,3.084,3.049,3.058,3.062,3.068,3.076,3.087,3.042,3.025,3.049,3.067,3.019,3.03,3.0,3.047,3.079,3.047,3.078,3.102,3.048
333,334,73.208,-166.75,-91.841,-12207.431,-7758.262,3.051,3.031,3.083,3.078,3.085,3.049,3.059,3.062,3.068,3.076,3.087,3.04,3.025,3.049,3.068,3.019,3.03,3.0,3.048,3.08,3.047,3.078,3.102,3.048
336,337,73.234,-166.767,-91.739,-12213.02,-7748.654,3.051,3.032,3.083,3.078,3.085,3.05,3.059,3.062,3.069,3.076,3.087,3.04,3.025,3.049,3.068,3.019,3.031,3.0,3.047,3.08,3.048,3.079,3.103,3.048
339,340,73.122,-166.821,-92.019,-12198.381,-7769.876,3.046,3.028,3.079,3.074,3.081,3.046,3.054,3.058,3.064,3.072,3.084,3.036,3.021,3.046,3.063,3.014,3.029,3.0,3.045,3.076,3.042,3.075,3.099,3.044
342,343,73.165,-166.808,-91.905,-12204.493,-7760.75,3.048,3.03,3.081,3.076,3.082,3.048,3.057,3.06,3.066,3.074,3.086,3.038,3.023,3.047,3.065,3.016,3.029,3.0,3.046,3.078,3.046,3.077,3.102,3.046
345,346,73.184,-166.816,-91.802,-12208.229,-7751.033,3.049,3.03,3.082,3.077,3.083,3.048,3.058,3.06,3.067,3.074,3.087,3.04,3.024,3.048,3.066,3.017,3.029,3.0,3.047,3.079,3.046,3.078,3.103,3.048
348,349,73.195,-166.828,-91.714,-12210.98,-7743.009,3.05,3.031,3.083,3.078,3.084,3.049,3.059,3.061,3.068,3.075,3.089,3.041,3.025,3.049,3.067,3.018,3.029,3.0,3.047,3.08,3.047,3.08,3.104,3.049
351,352,73.175,-166.803,-91.676,-12205.766,-7739.696,3.051,3.031,3.084,3.079,3.085,3.05,3.06,3.061,3.069,3.076,3.09,3.041,3.026,3.05,3.068,3.019,3.029,3.0,3.048,3.08,3.048,3.08,3.105,3.049
354,355,73.245,-166.787,-91.581,-12216.257,-7730.099,3.051,3.03,3.084,3.079,3.084,3.05,3.06,3.061,3.069,3.076,3.09,3.042,3.025,3.05,3.068,3.019,3.028,3.0,3.048,3.08,3.048,3.08,3.105,3.049
357,358,73.256,-166.817,-91.515,-12220.37,-7724.217,3.051,3.031,3.084,3.08,3.085,3.05,3.06,3.061,3.07,3.076,3.09,3.041,3.026,3.051,3.069,3.019,3.028,3.0,3.048,3.081,3.048,3.081,3.105,3.05
360,361,73.235,-166.8,-91.447,-12215.638,-7717.074,3.051,3.031,3.084,3.079,3.085,3.05,3.06,3.061,3.07,3.076,3.091,3.041,3.026,3.051,3.069,3.019,3.028,3.0,3.048,3.081,3.048,3.081,3.105,3.05
363,364,73.203,-166.761,-91.407,-12207.439,-7713.369,3.051,3.032,3.085,3.08,3.086,3.05,3.06,3.061,3.07,3.077,3.091,3.041,3.026,3.052,3.069,3.02,3.028,3.0,3.048,3.081,3.049,3.082,3.105,3.049
366,367,73.222,-166.786,-91.317,-12212.51,-7703.426,3.05,3.03,3.084,3.079,3.085,3.05,3.06,3.06,3.07,3.076,3.091,3.04,3.025,3.051,3.069,3.02,3.028,3.0,3.048,3.081,3.048,3.082,3.105,3.049
369,370,73.254,-166.812,-91.268,-12219.629,-7699.742,3.051,3.032,3.086,3.08,3.086,3.05,3.06,3.061,3.07,3.077,3.092,3.04,3.025,3.052,3.069,3.021,3.028,3.0,3.048,3.082,3.049,3.082,3.106,3.049
372,373,73.223,-166.803,-91.207,-12213.802,-7693.249,3.05,3.031,3.085,3.08,3.086,3.05,3.06,3.061,3.07,3.077,3.092,3.039,3.025,3.052,3.069,3.02,3.027,3.0,3.049,3.081,3.049,3.082,3.106,3.048
375,376,73.244,-166.814,-91.161,-12218.183,-7689.472,3.051,3.032,3.086,3.081,3.086,3.051,3.06,3.061,3.071,3.077,3.093,3.039,3.025,3.053,3.07,3.021,3.028,3.0,3.049,3.082,3.05,3.083,3.106,3.049
378,379,73.244,-166.782,-91.099,-12215.692,-7683.226,3.051,3.032,3.086,3.081,3.087,3.051,3.06,3.061,3.071,3.077,3.093,3.039,3.025,3.053,3.07,3.021,3.028,3.0,3.049,3.082,3.049,3.083,3.106,3.049
381,382,73.225,-166.8,-91.076,-12213.911,-7681.257,3.051,3.033,3.086,3.081,3.087,3.052,3.06,3.061,3.071,3.078,3.093,3.039,3.025,3.054,3.07,3.022,3.028,3.0,3.049,3.082,3.05,3.084,3.107,3.049
384,385,73.216,-166.834,-91.041,-12214.907,-7677.644,3.051,3.033,3.087,3.081,3.087,3.051,3.06,3.061,3.072,3.078,3.093,3.039,3.025,3.054,3.07,3.022,3.028,3.0,3.049,3.082,3.05,3.084,3.107,3.049
387,388,73.257,-166.801,-91.003,-12219.31,-7674.093,3.051,3.033,3.087,3.081,3.088,3.052,3.06,3.062,3.072,3.078,3.093,3.038,3.025,3.054,3.071,3.022,3.027,3.0,3.049,3.082,3.05,3.084,3.107,3.049
390,391,73.279,-166.815,-90.977,-12224.021,-7671.822,3.052,3.034,3.088,3.082,3.088,3.052,3.06,3.062,3.072,3.078,3.094,3.039,3.025,3.055,3.07,3.023,3.028,3.0,3.05,3.083,3.051,3.085,3.107,3.049
393,394,73.142,-166.796,-91.25,-12199.815,-7693.075,3.043,3.029,3.08,3.075,3.081,3.046,3.055,3.058,3.067,3.072,3.088,3.03,3.018,3.048,3.064,3.016,3.029,3.0,3.047,3.078,3.046,3.08,3.102,3.04
396,397,73.185,-166.763,-91.177,-12204.555,-7687.587,3.044,3.029,3.082,3.076,3.082,3.047,3.056,3.059,3.068,3.073,3.089,3.032,3.019,3.048,3.066,3.017,3.028,3.0,3.047,3.079,3.047,3.081,3.104,3.042
399,400,73.217,-166.797,-91.075,-12212.324,-7679.164,3.046,3.03,3.083,3.078,3.083,3.048,3.058,3.06,3.069,3.074,3.091,3.032,3.02,3.049,3.067,3.018,3.028,3.0,3.048,3.081,3.048,3.083,3.105,3.044
402,403,73.175,-166.818,-90.988,-12207.002,-7671.119,3.048,3.03,3.084,3.079,3.084,3.048,3.059,3.06,3.07,3.075,3.092,3.035,3.021,3.05,3.068,3.019,3.027,3.0,3.049,3.081,3.049,3.084,3.107,3.046
405,406,73.236,-166.798,-90.923,-12215.695,-7665.406,3.049,3.031,3.085,3.08,3.085,3.049,3.06,3.061,3.071,3.076,3.093,3.036,3.022,3.052,3.069,3.019,3.026,3.0,3.049,3.082,3.049,3.085,3.108,3.047
408,409,73.216,-166.763,-90.844,-12209.757,-7657.85,3.049,3.031,3.086,3.081,3.086,3.05,3.06,3.061,3.072,3.076,3.094,3.035,3.022,3.052,3.069,3.02,3.026,3.0,3.05,3.082,3.05,3.085,3.108,3.047
411,412,73.235,-166.846,-90.786,-12219.021,-7652.306,3.049,3.031,3.086,3.081,3.086,3.05,3.06,3.061,3.072,3.076,3.095,3.035,3.022,3.052,3.07,3.02,3.026,3.0,3.049,3.082,3.05,3.086,3.109,3.047
414,415,73.224,-166.797,-90.73,-12213.595,-7646.378,3.049,3.031,3.086,3.081,3.086,3.05,3.06,3.06,3.072,3.076,3.094,3.035,3.022,3.052,3.07,3.02,3.025,3.0,3.049,3.082,3.05,3.086,3.109,3.047
417,418,73.244,-166.793,-90.675,-12216.606,-7641.197,3.05,3.032,3.087,3.081,3.086,3.051,3.06,3.061,3.072,3.076,3.095,3.035,3.022,3.053,3.07,3.02,3.025,3.0,3.05,3.082,3.05,3.086,3.109,3.047
420,421,73.233,-166.811,-90.608,-12216.017,-7634.792,3.051,3.032,3.087,3.081,3.087,3.051,3.061,3.061,3.072,3.076,3.096,3.036,3.022,3.054,3.07,3.021,3.025,3.0,3.05,3.083,3.05,3.087,3.109,3.048
423,424,73.234,-166.812,-90.583,-12216.327,-7632.18,3.051,3.032,3.087,3.082,3.087,3.052,3.061,3.061,3.073,3.077,3.096,3.036,3.022,3.054,3.07,3.021,3.024,3.0,3.05,3.083,3.05,3.087,3.11,3.048
426,427,73.266,-166.761,-90.532,-12217.89,-7627.638,3.052,3.032,3.088,3.082,3.087,3.052,3.061,3.061,3.073,3.077,3.097,3.037,3.023,3.054,3.071,3.021,3.024,3.0,3.05,3.083,3.05,3.087,3.11,3.048
429,430,73.257,-166.783,-90.506,-12218.053,-7625.238,3.053,3.033,3.089,3.083,3.088,3.053,3.061,3.061,3.073,3.077,3.097,3.037,3.024,3.055,3.071,3.021,3.023,3.0,3.051,3.083,3.051,3.088,3.11,3.049
432,433,73.287,-166.804,-90.492,-12224.65,-7623.543,3.053,3.033,3.088,3.082,3.088,3.053,3.062,3.061,3.073,3.077,3.098,3.037,3.024,3.055,3.071,3.021,3.023,3.0,3.051,3.083,3.05,3.088,3.111,3.049
435,436,73.319,-166.791,-90.429,-12228.976,-7617.854,3.054,3.034,3.089,3.083,3.089,3.054,3.061,3.061,3.074,3.077,3.098,3.038,3.025,3.056,3.071,3.022,3.023,3.0,3.051,3.084,3.051,3.089,3.111,3.05
438,439,73.319,-166.809,-90.4,-12230.258,-7614.842,3.055,3.034,3.09,3.083,3.089,3.054,3.062,3.061,3.074,3.078,3.099,3.039,3.025,3.057,3.072,3.022,3.023,3.0,3.051,3.084,3.051,3.089,3.111,3.05
441,442,73.32,-166.816,-90.355,-12230.905,-7610.974,3.056,3.035,3.091,3.084,3.089,3.054,3.062,3.062,3.075,3.078,3.099,3.039,3.026,3.058,3.073,3.023,3.023,3.0,3.052,3.085,3.051,3.09,3.111,3.051
444,445,73.329,-166.83,-90.306,-12233.461,-7605.961,3.056,3.035,3.09,3.083,3.09,3.055,3.062,3.062,3.075,3.078,3.099,3.04,3.026,3.058,3.073,3.023,3.023,3.0,3.052,3.084,3.051,3.09,3.112,3.051
447,448,73.34,-166.786,-90.249,-12232.133,-7600.936,3.057,3.036,3.091,3.084,3.09,3.055,3.062,3.062,3.075,3.078,3.1,3.04,3.026,3.058,3.074,3.023,3.023,3.0,3.052,3.085,3.052,3.091,3.112,3.052
450,451,73.341,-166.805,-90.259,-12233.612,-7602.103,3.057,3.037,3.092,3.085,3.091,3.055,3.062,3.062,3.076,3.079,3.1,3.04,3.027,3.059,3.074,3.024,3.023,3.0,3.053,3.085,3.052,3.091,3.112,3.052
453,454,73.413,-166.791,-90.232,-12244.522,-7599.256,3.059,3.038,3.093,3.085,3.091,3.056,3.063,3.063,3.076,3.079,3.102,3.042,3.028,3.06,3.075,3.025,3.023,3.0,3.053,3.086,3.053,3.092,3.113,3.053
456,457,73.361,-166.789,-90.145,-12235.825,-7590.606,3.058,3.038,3.093,3.085,3.092,3.056,3.062,3.062,3.076,3.079,3.102,3.041,3.027,3.06,3.075,3.025,3.023,3.0,3.053,3.086,3.053,3.092,3.113,3.053
459,460,73.33,-166.807,-90.092,-12232.024,-7585.298,3.059,3.038,3.093,3.085,3.091,3.057,3.063,3.062,3.077,3.079,3.102,3.042,3.028,3.061,3.075,3.025,3.023,3.0,3.053,3.087,3.053,3.093,3.114,3.053
462,463,73.351,-166.822,-90.043,-12236.568,-7580.577,3.059,3.038,3.093,3.085,3.092,3.057,3.063,3.062,3.077,3.08,3.103,3.042,3.027,3.061,3.076,3.025,3.023,3.0,3.053,3.087,3.053,3.093,3.114,3.053
465,466,73.382,-166.825,-89.992,-12241.918,-7575.936,3.06,3.039,3.094,3.086,3.092,3.058,3.063,3.063,3.077,3.08,3.104,3.043,3.028,3.062,3.076,3.025,3.023,3.0,3.054,3.088,3.054,3.094,3.114,3.053
468,469,73.394,-166.822,-89.936,-12243.745,-7571.176,3.06,3.04,3.095,3.087,3.093,3.059,3.063,3.063,3.078,3.081,3.104,3.042,3.028,3.063,3.077,3.026,3.024,3.0,3.054,3.088,3.055,3.094,3.115,3.053
471,472,73.424,-166.785,-89.938,-12245.93,-7571.022,3.061,3.04,3.096,3.087,3.094,3.059,3.064,3.063,3.078,3.081,3.105,3.044,3.029,3.064,3.078,3.026,3.024,3.0,3.055,3.089,3.055,3.095,3.115,3.054
474,475,73.404,-166.782,-89.872,-12242.413,-7564.564,3.061,3.041,3.095,3.087,3.094,3.059,3.063,3.063,3.078,3.081,3.105,3.043,3.029,3.064,3.078,3.026,3.024,3.0,3.055,3.088,3.055,3.095,3.115,3.054
477,478,73.403,-166.801,-89.858,-12243.689,-7563.041,3.062,3.041,3.096,3.087,3.094,3.06,3.064,3.064,3.079,3.081,3.105,3.044,3.029,3.064,3.078,3.027,3.024,3.0,3.055,3.088,3.055,3.095,3.115,3.054
480,481,73.423,-166.768,-89.756,-12244.628,-7553.297,3.063,3.042,3.097,3.088,3.095,3.06,3.064,3.064,3.079,3.081,3.106,3.044,3.029,3.065,3.079,3.028,3.024,3.0,3.055,3.089,3.056,3.096,3.116,3.055
483,484,73.432,-166.782,-89.729,-12247.208,-7550.246,3.063,3.042,3.097,3.088,3.095,3.061,3.064,3.064,3.079,3.081,3.107,3.045,3.03,3.066,3.079,3.027,3.024,3.0,3.056,3.089,3.056,3.096,3.117,3.055
486,487,73.423,-166.777,-89.624,-12245.304,-7540.436,3.064,3.042,3.097,3.088,3.095,3.061,3.064,3.064,3.08,3.081,3.107,3.046,3.031,3.066,3.079,3.027,3.024,3.0,3.056,3.089,3.056,3.096,3.117,3.055
489,490,73.464,-166.764,-89.569,-12251.095,-7535.264,3.064,3.044,3.098,3.088,3.096,3.062,3.065,3.064,3.081,3.082,3.109,3.046,3.031,3.067,3.08,3.028,3.025,3.0,3.057,3.09,3.057,3.097,3.118,3.056
492,493,73.402,-166.814,-89.954,-12244.451,-7573.283,3.066,3.04,3.094,3.085,3.092,3.058,3.061,3.063,3.078,3.081,3.105,3.059,3.036,3.061,3.076,3.023,3.026,3.0,3.053,3.087,3.053,3.093,3.115,3.059
495,496,73.441,-166.834,-89.94,-12252.451,-7571.997,3.067,3.041,3.095,3.085,3.092,3.059,3.062,3.064,3.079,3.081,3.106,3.062,3.038,3.062,3.077,3.023,3.026,3.0,3.053,3.087,3.053,3.094,3.116,3.06
498,499,73.398,-166.788,-89.863,-12241.982,-7564.033,3.066,3.04,3.095,3.085,3.092,3.058,3.062,3.064,3.079,3.081,3.106,3.059,3.035,3.062,3.076,3.023,3.026,2.999,3.054,3.087,3.053,3.094,3.116,3.059
501,502,73.41,-166.808,-89.813,-12245.493,-7559.272,3.067,3.041,3.095,3.085,3.093,3.059,3.062,3.064,3.079,3.081,3.107,3.057,3.035,3.063,3.077,3.023,3.026,3.0,3.055,3.088,3.053,3.095,3.116,3.059
504,505,73.41,-166.799,-89.778,-12244.748,-7556.767,3.071,3.042,3.096,3.086,3.094,3.06,3.063,3.064,3.08,3.081,3.108,3.061,3.039,3.064,3.077,3.023,3.025,3.0,3.055,3.088,3.054,3.095,3.117,3.062
507,508,73.422,-166.781,-89.777,-12245.347,-7556.221,3.07,3.042,3.096,3.085,3.094,3.06,3.063,3.064,3.08,3.08,3.108,3.061,3.038,3.064,3.077,3.023,3.025,3.0,3.055,3.088,3.053,3.096,3.118,3.061
510,511,73.454,-166.801,-89.737,-12252.131,-7553.364,3.07,3.043,3.097,3.086,3.094,3.061,3.063,3.064,3.081,3.081,3.108,3.06,3.038,3.065,3.077,3.024,3.025,3.0,3.055,3.089,3.054,3.096,3.118,3.062
513,514,73.504,-166.811,-89.701,-12261.281,-7550.142,3.071,3.044,3.098,3.086,3.095,3.062,3.064,3.064,3.081,3.081,3.109,3.061,3.039,3.066,3.077,3.025,3.025,3.0,3.056,3.089,3.054,3.097,3.118,3.062
516,517,73.453,-166.761,-89.676,-12249.134,-7547.902,3.073,3.045,3.099,3.088,3.096,3.062,3.064,3.065,3.082,3.082,3.11,3.063,3.041,3.067,3.079,3.025,3.025,3.0,3.056,3.09,3.055,3.098,3.119,3.063
519,520,73.484,-166.822,-89.646,-12258.679,-7545.072,3.074,3.045,3.1,3.087,3.096,3.063,3.064,3.065,3.082,3.082,3.111,3.064,3.041,3.067,3.079,3.026,3.025,3.0,3.056,3.09,3.056,3.098,3.119,3.064
522,523,73.505,-166.799,-89.588,-12260.56,-7539.585,3.075,3.046,3.1,3.088,3.097,3.064,3.065,3.065,3.083,3.082,3.111,3.065,3.042,3.068,3.079,3.026,3.025,3.0,3.057,3.09,3.056,3.098,3.12,3.064
525,526,73.535,-166.807,-89.541,-12266.067,-7534.948,3.076,3.046,3.1,3.089,3.097,3.064,3.065,3.065,3.084,3.083,3.112,3.066,3.043,3.069,3.079,3.026,3.025,3.0,3.057,3.09,3.056,3.099,3.12,3.065
528,529,73.494,-166.784,-89.491,-12257.629,-7530.342,3.077,3.048,3.101,3.089,3.097,3.065,3.065,3.066,3.084,3.083,3.113,3.067,3.043,3.07,3.08,3.027,3.025,3.0,3.057,3.091,3.057,3.1,3.121,3.066
531,532,73.535,-166.806,-89.451,-12266.109,-7525.978,3.078,3.048,3.102,3.089,3.098,3.066,3.065,3.066,3.085,3.083,3.113,3.068,3.044,3.07,3.08,3.027,3.024,3.0,3.058,3.091,3.057,3.1,3.122,3.067
534,535,73.523,-166.804,-89.415,-12264.034,-7522.704,3.079,3.048,3.102,3.089,3.098,3.067,3.066,3.065,3.085,3.084,3.114,3.068,3.045,3.071,3.081,3.028,3.025,3.0,3.059,3.092,3.057,3.101,3.122,3.068
537,538,73.565,-166.782,-89.352,-12269.344,-7516.917,3.079,3.05,3.103,3.09,3.099,3.067,3.067,3.067,3.086,3.084,3.115,3.069,3.046,3.073,3.082,3.029,3.026,3.0,3.06,3.093,3.058,3.101,3.123,3.068
540,541,73.586,-166.756,-89.318,-12270.995,-7513.566,3.08,3.05,3.104,3.09,3.099,3.067,3.066,3.066,3.086,3.084,3.115,3.069,3.046,3.073,3.082,3.029,3.025,3.0,3.06,3.092,3.058,3.101,3.124,3.068
543,544,73.557,-166.805,-89.252,-12269.573,-7507.368,3.079,3.05,3.104,3.091,3.1,3.068,3.066,3.066,3.087,3.084,3.115,3.068,3.045,3.074,3.082,3.029,3.025,3.0,3.06,3.093,3.058,3.102,3.124,3.067
546,547,73.537,-166.806,-89.182,-12266.458,-7500.802,3.08,3.051,3.105,3.091,3.1,3.068,3.066,3.067,3.087,3.085,3.116,3.067,3.045,3.075,3.083,3.03,3.025,3.0,3.061,3.093,3.059,3.103,3.124,3.068
549,550,73.587,-166.803,-89.069,-12274.575,-7489.867,3.079,3.051,3.105,3.092,3.1,3.068,3.066,3.067,3.088,3.085,3.116,3.067,3.044,3.075,3.083,3.031,3.025,3.0,3.061,3.093,3.059,3.103,3.124,3.067
552,553,73.618,-166.793,-89.051,-12279.021,-7488.17,3.079,3.051,3.106,3.092,3.101,3.068,3.066,3.066,3.088,3.085,3.117,3.067,3.045,3.075,3.084,3.031,3.025,3.0,3.061,3.094,3.059,3.103,3.125,3.067
555,556,73.597,-166.771,-88.968,-12273.832,-7479.698,3.079,3.051,3.106,3.092,3.101,3.068,3.066,3.066,3.088,3.084,3.117,3.066,3.044,3.076,3.084,3.031,3.024,3.0,3.061,3.093,3.059,3.103,3.125,3.066
558,559,73.598,-166.769,-88.91,-12273.762,-7474.646,3.081,3.053,3.107,3.093,3.102,3.069,3.066,3.067,3.089,3.085,3.118,3.068,3.045,3.077,3.085,3.032,3.025,3.0,3.062,3.094,3.06,3.104,3.125,3.068
561,562,73.598,-166.775,-88.848,-12274.322,-7468.735,3.08,3.053,3.107,3.093,3.102,3.07,3.066,3.067,3.09,3.086,3.118,3.066,3.044,3.077,3.085,3.033,3.025,3.0,3.063,3.094,3.06,3.104,3.126,3.067
564,565,73.638,-166.755,-88.804,-12279.473,-7464.522,3.081,3.054,3.108,3.094,3.102,3.07,3.066,3.067,3.09,3.086,3.119,3.067,3.045,3.078,3.085,3.033,3.025,3.0,3.063,3.095,3.061,3.105,3.126,3.068
567,568,73.608,-166.779,-88.723,-12276.347,-7456.739,3.08,3.054,3.108,3.094,3.103,3.07,3.066,3.067,3.09,3.086,3.119,3.066,3.045,3.078,3.086,3.033,3.024,3.0,3.064,3.095,3.061,3.105,3.127,3.067
570,571,73.657,-166.777,-88.62,-12284.353,-7446.476,3.08,3.054,3.108,3.094,3.103,3.07,3.066,3.067,3.091,3.086,3.12,3.065,3.044,3.079,3.086,3.034,3.025,3.0,3.064,3.095,3.061,3.106,3.127,3.066
573,574,73.649,-166.786,-88.689,-12283.562,-7454.826,3.084,3.056,3.109,3.094,3.103,3.072,3.067,3.067,3.091,3.087,3.12,3.072,3.049,3.08,3.086,3.034,3.024,3.0,3.064,3.095,3.061,3.105,3.127,3.069
576,577,73.678,-166.795,-88.676,-12289.095,-7453.395,3.086,3.057,3.11,3.095,3.104,3.072,3.068,3.068,3.092,3.087,3.122,3.074,3.051,3.081,3.087,3.035,3.025,3.0,3.065,3.096,3.062,3.107,3.128,3.071
579,580,73.71,-166.808,-88.641,-12295.419,-7450.282,3.087,3.057,3.111,3.096,3.105,3.073,3.067,3.068,3.093,3.087,3.123,3.075,3.052,3.082,3.088,3.035,3.024,3.0,3.064,3.096,3.062,3.107,3.129,3.072
582,583,73.74,-166.827,-88.623,-12301.842,-7448.488,3.088,3.059,3.112,3.096,3.106,3.074,3.067,3.068,3.094,3.088,3.123,3.076,3.052,3.083,3.089,3.036,3.024,3.0,3.065,3.097,3.063,3.108,3.13,3.072
585,586,73.752,-166.793,-88.526,-12301.329,-7438.984,3.087,3.059,3.112,3.097,3.106,3.075,3.067,3.069,3.094,3.088,3.123,3.074,3.052,3.083,3.089,3.037,3.024,3.0,3.066,3.097,3.064,3.108,3.13,3.071
588,589,73.711,-166.794,-88.488,-12294.551,-7435.944,3.088,3.06,3.114,3.098,3.107,3.076,3.067,3.069,3.095,3.089,3.124,3.076,3.053,3.085,3.09,3.038,3.025,3.0,3.066,3.098,3.064,3.109,3.131,3.072
590,591,73.731,-166.797,-88.432,-12298.075,-7429.98,3.088,3.06,3.113,3.098,3.107,3.076,3.067,3.069,3.095,3.089,3.124,3.076,3.052,3.084,3.09,3.038,3.024,3.0,3.066,3.098,3.064,3.109,3.131,3.071