File: data/#9 (45도_충전0.5C_방전0.5C)_충방전싸이클_result.csv
,Cycle,Voltage(V),Current(A),Capacity(Ah),Power(W),wattHour(Wh),CELL1,CELL2,CELL3,CELL4,CELL5,CELL6,CELL7,CELL8,CELL9,CELL10,CELL11,CELL12,CELL13,CELL14,CELL15,CELL16,CELL17,CELL18,CELL19,CELL20,CELL21,CELL22,CELL23,CELL24
0,1,73.265,-55.599,-96.201,-4073.484,-8353.93,3.077,3.065,3.041,3.063,3.075,3.069,3.062,3.074,3.0,3.005,3.084,3.032,3.091,3.078,3.042,3.083,3.0,3.081,3.072,3.03,3.078,3.013,3.024,3.028
3,4,73.254,-55.601,-96.357,-4072.966,-8371.615,3.08,3.067,3.043,3.064,3.077,3.071,3.062,3.073,3.001,3.005,3.085,3.032,3.092,3.079,3.044,3.085,3.0,3.081,3.071,3.031,3.078,3.013,3.025,3.03
6,7,73.244,-55.596,-96.349,-4072.097,-8372.595,3.084,3.069,3.044,3.065,3.078,3.073,3.062,3.073,3.001,3.005,3.086,3.035,3.095,3.08,3.045,3.086,3.0,3.081,3.072,3.031,3.079,3.013,3.027,3.033
9,10,73.304,-55.585,-96.319,-4074.57,-8371.142,3.084,3.069,3.046,3.066,3.08,3.073,3.062,3.072,3.001,3.004,3.084,3.033,3.094,3.08,3.046,3.088,3.0,3.08,3.071,3.031,3.079,3.014,3.027,3.033
12,13,73.284,-55.594,-96.311,-4074.163,-8371.402,3.083,3.069,3.047,3.067,3.08,3.073,3.061,3.071,3.0,3.004,3.083,3.031,3.094,3.079,3.047,3.088,3.0,3.079,3.071,3.031,3.079,3.014,3.028,3.033
15,16,73.264,-55.611,-96.267,-4074.27,-8368.135,3.084,3.069,3.047,3.068,3.081,3.073,3.061,3.071,3.0,3.003,3.084,3.031,3.095,3.079,3.047,3.089,3.0,3.079,3.07,3.031,3.08,3.014,3.028,3.033
18,19,73.284,-55.603,-96.259,-4074.811,-8368.098,3.084,3.07,3.048,3.068,3.081,3.073,3.061,3.07,3.0,3.003,3.083,3.031,3.095,3.079,3.048,3.089,3.0,3.079,3.07,3.031,3.079,3.014,3.028,3.034
21,22,73.264,-55.592,-96.25,-4072.939,-8367.916,3.084,3.07,3.049,3.068,3.082,3.073,3.06,3.07,3.0,3.003,3.083,3.031,3.095,3.079,3.048,3.089,3.0,3.078,3.069,3.03,3.079,3.014,3.028,3.034
24,25,73.303,-55.62,-96.197,-4077.156,-8363.502,3.084,3.07,3.049,3.068,3.082,3.073,3.06,3.069,3.0,3.003,3.083,3.031,3.096,3.078,3.048,3.09,3.0,3.078,3.07,3.03,3.079,3.014,3.028,3.034
27,28,73.291,-55.598,-96.207,-4074.839,-8365.173,3.084,3.07,3.049,3.069,3.082,3.074,3.06,3.069,3.0,3.003,3.082,3.031,3.096,3.078,3.048,3.09,3.0,3.078,3.069,3.03,3.078,3.014,3.029,3.034
30,31,73.271,-55.616,-96.172,-4075.012,-8362.329,3.084,3.07,3.05,3.069,3.082,3.074,3.06,3.069,3.0,3.003,3.082,3.031,3.096,3.079,3.049,3.09,3.0,3.077,3.069,3.03,3.079,3.014,3.029,3.035
33,34,73.281,-55.604,-96.147,-4074.693,-8360.178,3.085,3.07,3.05,3.069,3.082,3.074,3.059,3.069,3.0,3.002,3.082,3.031,3.096,3.078,3.049,3.09,3.0,3.078,3.069,3.03,3.078,3.014,3.029,3.035
36,37,73.279,-55.597,-96.107,-4074.056,-8356.682,3.084,3.07,3.05,3.069,3.082,3.073,3.06,3.068,3.0,3.002,3.081,3.031,3.096,3.078,3.048,3.09,3.0,3.077,3.068,3.03,3.078,3.013,3.029,3.035
39,40,73.311,-55.611,-96.585,-4076.905,-8401.922,3.088,3.073,3.054,3.073,3.085,3.076,3.059,3.067,3.0,3.002,3.082,3.031,3.099,3.081,3.053,3.094,3.002,3.078,3.068,3.032,3.08,3.016,3.032,3.039
42,43,73.322,-55.605,-96.521,-4077.042,-8396.495,3.087,3.072,3.054,3.072,3.084,3.075,3.059,3.066,3.0,3.001,3.081,3.03,3.098,3.08,3.053,3.094,3.002,3.077,3.067,3.031,3.079,3.015,3.031,3.038
45,46,73.261,-55.608,-96.504,-4073.859,-8395.749,3.087,3.072,3.054,3.072,3.085,3.075,3.057,3.065,3.0,3.0,3.08,3.029,3.098,3.08,3.053,3.094,3.001,3.076,3.067,3.031,3.079,3.015,3.03,3.037
48,49,73.323,-55.596,-96.489,-4076.444,-8394.78,3.087,3.072,3.055,3.073,3.085,3.075,3.058,3.065,3.0,3.0,3.08,3.029,3.098,3.08,3.054,3.094,3.001,3.076,3.067,3.031,3.079,3.015,3.031,3.037
51,52,73.282,-55.595,-96.463,-4074.093,-8392.715,3.087,3.072,3.055,3.073,3.085,3.075,3.058,3.064,3.0,3.0,3.08,3.029,3.099,3.079,3.054,3.094,3.001,3.075,3.066,3.031,3.079,3.015,3.031,3.037
54,55,73.302,-55.586,-96.447,-4074.514,-8391.527,3.087,3.072,3.055,3.073,3.085,3.075,3.057,3.064,3.0,3.0,3.079,3.029,3.099,3.079,3.054,3.094,3.001,3.075,3.066,3.031,3.079,3.015,3.031,3.038
57,58,73.333,-55.595,-96.424,-4076.944,-8389.747,3.088,3.072,3.056,3.073,3.085,3.075,3.057,3.064,3.0,3.0,3.08,3.029,3.099,3.079,3.054,3.094,3.001,3.075,3.066,3.031,3.08,3.015,3.031,3.038
60,61,73.323,-55.606,-96.381,-4077.177,-8385.895,3.087,3.072,3.056,3.073,3.085,3.075,3.057,3.064,3.0,3.0,3.079,3.029,3.099,3.079,3.054,3.094,3.001,3.075,3.066,3.031,3.079,3.015,3.031,3.038
63,64,73.302,-55.606,-96.338,-4076.008,-8382.142,3.087,3.072,3.056,3.073,3.086,3.076,3.057,3.064,3.0,3.0,3.079,3.029,3.099,3.079,3.054,3.094,3.001,3.075,3.066,3.031,3.079,3.016,3.031,3.038
66,67,73.312,-55.617,-96.371,-4077.403,-8385.659,3.088,3.072,3.057,3.074,3.086,3.076,3.057,3.064,3.001,3.0,3.079,3.029,3.099,3.079,3.055,3.095,3.001,3.075,3.066,3.031,3.079,3.015,3.031,3.039
69,70,73.301,-55.597,-96.329,-4075.327,-8381.852,3.087,3.072,3.057,3.073,3.086,3.076,3.056,3.063,3.001,3.0,3.079,3.028,3.1,3.079,3.055,3.094,3.001,3.074,3.065,3.031,3.079,3.016,3.031,3.039
72,73,73.312,-55.599,-96.305,-4076.066,-8379.839,3.088,3.072,3.057,3.074,3.087,3.076,3.056,3.063,3.001,3.0,3.079,3.029,3.1,3.079,3.055,3.095,3.001,3.074,3.065,3.031,3.079,3.016,3.031,3.039
75,76,73.301,-55.589,-96.292,-4074.737,-8378.924,3.088,3.072,3.057,3.074,3.087,3.076,3.057,3.063,3.001,3.0,3.078,3.029,3.1,3.079,3.056,3.095,3.001,3.074,3.065,3.031,3.079,3.016,3.032,3.039
78,79,73.3,-55.593,-96.256,-4075.008,-8375.766,3.088,3.072,3.057,3.074,3.087,3.076,3.056,3.063,3.001,3.0,3.078,3.028,3.1,3.079,3.056,3.095,3.001,3.074,3.065,3.031,3.08,3.016,3.032,3.039
81,82,73.333,-55.611,-96.249,-4078.115,-8375.266,3.088,3.072,3.058,3.074,3.087,3.077,3.056,3.063,3.001,3.0,3.078,3.028,3.1,3.079,3.056,3.095,3.001,3.074,3.065,3.031,3.079,3.016,3.032,3.039
84,85,73.334,-55.591,-96.21,-4076.68,-8371.956,3.088,3.073,3.059,3.075,3.088,3.077,3.056,3.063,3.002,3.0,3.078,3.028,3.101,3.079,3.057,3.096,3.002,3.074,3.065,3.031,3.08,3.016,3.032,3.04
87,88,73.305,-55.616,-96.223,-4076.9,-8373.455,3.088,3.073,3.06,3.075,3.089,3.077,3.056,3.063,3.002,3.0,3.078,3.028,3.1,3.079,3.057,3.096,3.002,3.074,3.065,3.032,3.08,3.017,3.032,3.04
90,91,73.306,-55.606,-96.223,-4076.312,-8373.654,3.088,3.072,3.059,3.075,3.089,3.077,3.056,3.062,3.002,3.0,3.077,3.027,3.1,3.079,3.058,3.096,3.001,3.074,3.065,3.032,3.08,3.016,3.032,3.04
93,94,73.337,-55.596,-96.183,-4077.267,-8370.103,3.087,3.072,3.06,3.075,3.089,3.077,3.056,3.062,3.001,3.0,3.077,3.027,3.1,3.079,3.058,3.097,3.002,3.073,3.065,3.032,3.081,3.017,3.032,3.039
96,97,73.356,-55.603,-96.153,-4078.795,-8367.456,3.088,3.073,3.06,3.075,3.089,3.077,3.056,3.062,3.001,3.0,3.077,3.027,3.101,3.08,3.058,3.097,3.002,3.073,3.065,3.032,3.081,3.017,3.032,3.039
99,100,73.335,-55.59,-96.133,-4076.678,-8365.812,3.088,3.073,3.061,3.076,3.09,3.077,3.056,3.062,3.001,3.0,3.077,3.027,3.101,3.08,3.059,3.097,3.002,3.073,3.065,3.032,3.081,3.018,3.033,3.04
102,103,73.415,-55.589,-96.514,-4081.031,-8395.818,3.09,3.076,3.067,3.078,3.089,3.082,3.063,3.066,3.0,3.005,3.077,3.029,3.103,3.082,3.065,3.102,3.012,3.08,3.068,3.041,3.087,3.024,3.037,3.043
105,106,73.437,-55.611,-96.411,-4083.848,-8387.362,3.092,3.078,3.069,3.079,3.091,3.083,3.063,3.067,3.0,3.006,3.078,3.03,3.106,3.084,3.067,3.103,3.013,3.08,3.069,3.042,3.088,3.025,3.038,3.044
108,109,73.477,-55.613,-96.346,-4086.297,-8382.191,3.093,3.078,3.069,3.079,3.092,3.084,3.063,3.067,3.0,3.006,3.078,3.031,3.106,3.085,3.067,3.104,3.013,3.081,3.069,3.042,3.089,3.025,3.038,3.045
111,112,73.443,-55.619,-96.242,-4084.812,-8372.947,3.094,3.079,3.07,3.08,3.092,3.085,3.064,3.068,3.0,3.007,3.079,3.031,3.107,3.085,3.068,3.105,3.013,3.081,3.07,3.042,3.09,3.025,3.039,3.046
114,115,73.452,-55.593,-96.216,-4083.466,-8371.167,3.094,3.079,3.071,3.08,3.093,3.086,3.064,3.068,3.0,3.007,3.08,3.032,3.108,3.086,3.069,3.105,3.013,3.081,3.069,3.043,3.09,3.026,3.039,3.046
117,118,73.462,-55.583,-96.177,-4083.261,-8367.883,3.094,3.079,3.071,3.079,3.093,3.085,3.064,3.068,3.0,3.006,3.08,3.031,3.108,3.086,3.069,3.105,3.012,3.08,3.069,3.042,3.09,3.025,3.038,3.046
120,121,73.493,-55.603,-96.139,-4086.46,-8364.734,3.094,3.079,3.071,3.079,3.093,3.086,3.064,3.068,3.0,3.006,3.079,3.032,3.109,3.086,3.069,3.105,3.012,3.081,3.069,3.042,3.09,3.025,3.039,3.046
123,124,73.484,-55.615,-96.104,-4086.866,-8361.779,3.095,3.079,3.072,3.079,3.093,3.086,3.064,3.068,3.0,3.006,3.08,3.031,3.109,3.086,3.069,3.105,3.012,3.08,3.069,3.042,3.09,3.024,3.039,3.046
126,127,73.462,-55.605,-96.075,-4084.858,-8359.368,3.094,3.079,3.072,3.079,3.093,3.085,3.064,3.068,3.0,3.006,3.08,3.031,3.109,3.086,3.069,3.105,3.012,3.081,3.068,3.042,3.091,3.024,3.039,3.046
129,130,73.504,-55.596,-96.035,-4086.543,-8355.962,3.095,3.08,3.072,3.08,3.093,3.085,3.064,3.068,3.0,3.006,3.08,3.032,3.109,3.087,3.069,3.106,3.012,3.081,3.068,3.042,3.091,3.025,3.038,3.046
132,133,73.506,-55.59,-95.993,-4086.179,-8352.381,3.095,3.08,3.073,3.08,3.093,3.085,3.064,3.068,3.0,3.006,3.08,3.031,3.109,3.087,3.07,3.106,3.012,3.081,3.068,3.042,3.091,3.025,3.039,3.047
135,136,73.476,-55.59,-95.952,-4084.534,-8348.591,3.094,3.08,3.073,3.079,3.093,3.085,3.063,3.067,3.0,3.005,3.08,3.031,3.109,3.086,3.069,3.106,3.012,3.08,3.068,3.042,3.091,3.025,3.039,3.045
138,139,73.496,-55.602,-95.928,-4086.536,-8346.675,3.094,3.08,3.073,3.08,3.093,3.085,3.063,3.068,3.0,3.005,3.08,3.031,3.108,3.087,3.07,3.106,3.012,3.08,3.068,3.042,3.092,3.025,3.039,3.046
141,142,73.475,-55.602,-95.859,-4085.378,-8340.28,3.094,3.08,3.074,3.08,3.093,3.085,3.063,3.068,3.0,3.006,3.08,3.031,3.108,3.087,3.07,3.107,3.012,3.081,3.068,3.042,3.092,3.025,3.039,3.046
144,145,73.486,-55.612,-95.844,-4086.707,-8339.208,3.094,3.08,3.074,3.08,3.093,3.085,3.063,3.068,3.0,3.005,3.079,3.031,3.108,3.087,3.07,3.107,3.012,3.08,3.068,3.043,3.093,3.025,3.039,3.046
147,148,73.465,-55.615,-95.773,-4085.731,-8332.535,3.094,3.08,3.074,3.08,3.093,3.085,3.062,3.067,3.0,3.006,3.079,3.031,3.108,3.086,3.07,3.107,3.012,3.08,3.068,3.042,3.092,3.025,3.039,3.045
150,151,73.508,-55.612,-95.74,-4087.894,-8329.734,3.094,3.08,3.074,3.08,3.093,3.085,3.063,3.067,3.0,3.005,3.079,3.031,3.108,3.086,3.071,3.107,3.012,3.081,3.068,3.043,3.092,3.025,3.039,3.045
153,154,73.497,-55.614,-95.712,-4087.458,-8327.272,3.094,3.081,3.074,3.08,3.093,3.084,3.062,3.067,3.0,3.006,3.079,3.031,3.108,3.087,3.07,3.107,3.012,3.08,3.068,3.043,3.093,3.025,3.039,3.045
156,157,73.459,-55.61,-95.644,-4085.055,-8320.931,3.093,3.081,3.074,3.08,3.093,3.084,3.062,3.067,3.0,3.005,3.078,3.031,3.107,3.086,3.07,3.107,3.011,3.08,3.068,3.043,3.092,3.026,3.039,3.044
159,160,73.49,-55.585,-95.616,-4084.905,-8318.339,3.093,3.081,3.074,3.08,3.093,3.084,3.061,3.067,3.0,3.005,3.077,3.03,3.107,3.086,3.07,3.107,3.011,3.08,3.068,3.043,3.092,3.025,3.039,3.043
162,163,73.491,-55.579,-95.571,-4084.539,-8314.26,3.093,3.081,3.074,3.08,3.093,3.084,3.061,3.066,3.0,3.006,3.077,3.029,3.107,3.087,3.071,3.107,3.011,3.08,3.068,3.043,3.092,3.026,3.039,3.043
165,166,73.459,-55.619,-95.525,-4085.695,-8309.93,3.092,3.081,3.074,3.08,3.093,3.084,3.061,3.066,3.0,3.006,3.076,3.028,3.106,3.086,3.071,3.107,3.011,3.08,3.068,3.043,3.091,3.025,3.039,3.043
168,169,73.491,-55.584,-95.458,-4084.902,-8303.738,3.092,3.081,3.074,3.08,3.093,3.084,3.06,3.066,3.0,3.006,3.076,3.028,3.106,3.086,3.071,3.107,3.01,3.08,3.067,3.043,3.091,3.025,3.039,3.043
171,172,73.467,-55.612,-95.428,-4085.614,-8300.874,3.092,3.081,3.074,3.08,3.093,3.084,3.06,3.066,3.0,3.005,3.076,3.028,3.107,3.086,3.071,3.107,3.01,3.08,3.067,3.043,3.091,3.025,3.039,3.043
174,175,73.468,-55.605,-95.393,-4085.144,-8297.686,3.092,3.081,3.074,3.08,3.094,3.083,3.06,3.066,3.0,3.006,3.076,3.028,3.106,3.086,3.071,3.107,3.01,3.08,3.067,3.043,3.091,3.025,3.039,3.043
177,178,73.436,-55.605,-95.353,-4083.394,-8294.06,3.092,3.081,3.074,3.08,3.093,3.084,3.06,3.066,3.0,3.005,3.075,3.028,3.106,3.086,3.071,3.107,3.01,3.079,3.067,3.043,3.09,3.025,3.039,3.043
180,181,73.457,-55.594,-95.311,-4083.794,-8290.058,3.092,3.082,3.074,3.08,3.094,3.083,3.06,3.066,3.0,3.006,3.076,3.028,3.106,3.087,3.071,3.107,3.01,3.079,3.067,3.044,3.091,3.025,3.04,3.043
183,184,73.457,-55.601,-95.284,-4084.277,-8287.694,3.092,3.082,3.074,3.08,3.094,3.083,3.06,3.066,3.0,3.006,3.075,3.028,3.107,3.086,3.071,3.107,3.01,3.079,3.067,3.043,3.091,3.025,3.04,3.043
186,187,73.507,-55.588,-95.22,-4086.062,-8281.83,3.093,3.082,3.074,3.081,3.094,3.084,3.06,3.067,3.0,3.006,3.076,3.029,3.107,3.087,3.072,3.107,3.01,3.079,3.067,3.044,3.091,3.025,3.04,3.044
189,190,73.465,-55.577,-95.201,-4083.002,-8280.135,3.093,3.082,3.074,3.081,3.094,3.084,3.06,3.067,3.0,3.006,3.076,3.029,3.107,3.087,3.071,3.107,3.01,3.079,3.066,3.043,3.091,3.025,3.04,3.044
192,193,73.475,-55.591,-95.138,-4084.566,-8274.076,3.093,3.082,3.074,3.08,3.094,3.084,3.06,3.067,3.0,3.005,3.075,3.028,3.106,3.086,3.071,3.107,3.01,3.079,3.066,3.043,3.091,3.025,3.04,3.043
195,196,73.454,-55.6,-95.091,-4084.02,-8269.656,3.093,3.082,3.075,3.081,3.094,3.084,3.06,3.067,3.0,3.006,3.075,3.028,3.107,3.086,3.071,3.107,3.01,3.079,3.066,3.042,3.091,3.025,3.041,3.044
198,199,73.463,-55.594,-95.047,-4084.145,-8265.464,3.094,3.082,3.074,3.081,3.094,3.084,3.06,3.067,3.0,3.005,3.075,3.029,3.106,3.086,3.071,3.107,3.01,3.079,3.066,3.043,3.091,3.025,3.041,3.045
201,202,73.626,-55.573,-95.351,-4091.614,-8291.383,3.098,3.087,3.08,3.085,3.096,3.089,3.069,3.074,3.0,3.018,3.079,3.038,3.109,3.091,3.076,3.112,3.022,3.087,3.072,3.053,3.096,3.036,3.052,3.053
204,205,73.616,-55.605,-95.238,-4093.431,-8281.995,3.1,3.089,3.081,3.086,3.097,3.09,3.07,3.075,3.0,3.019,3.08,3.039,3.111,3.091,3.078,3.114,3.023,3.087,3.073,3.053,3.098,3.036,3.053,3.054
207,208,73.637,-55.585,-95.141,-4093.085,-8273.709,3.101,3.089,3.082,3.087,3.098,3.09,3.07,3.075,3.0,3.019,3.081,3.039,3.112,3.092,3.078,3.115,3.023,3.088,3.073,3.054,3.098,3.036,3.053,3.055
210,211,73.667,-55.607,-95.057,-4096.421,-8266.238,3.102,3.09,3.083,3.088,3.099,3.091,3.069,3.075,3.0,3.019,3.081,3.04,3.112,3.093,3.079,3.115,3.023,3.088,3.074,3.054,3.099,3.037,3.054,3.055
213,214,73.7,-55.61,-95.036,-4098.438,-8264.815,3.102,3.09,3.083,3.088,3.099,3.091,3.07,3.075,3.0,3.019,3.082,3.04,3.113,3.093,3.08,3.116,3.023,3.088,3.074,3.054,3.099,3.037,3.054,3.055
216,217,73.658,-55.592,-94.96,-4094.812,-8257.894,3.102,3.091,3.083,3.088,3.1,3.091,3.07,3.076,3.0,3.019,3.082,3.041,3.113,3.094,3.08,3.116,3.023,3.089,3.074,3.054,3.099,3.037,3.054,3.056
219,220,73.671,-55.599,-94.93,-4096.031,-8255.528,3.102,3.091,3.084,3.088,3.1,3.091,3.07,3.076,3.0,3.019,3.082,3.04,3.114,3.094,3.08,3.116,3.023,3.089,3.074,3.054,3.1,3.036,3.054,3.056
222,223,73.683,-55.605,-94.867,-4097.092,-8249.811,3.103,3.091,3.084,3.088,3.101,3.092,3.07,3.075,3.0,3.019,3.082,3.041,3.114,3.094,3.08,3.117,3.023,3.088,3.073,3.054,3.1,3.037,3.054,3.056
225,226,73.684,-55.602,-94.851,-4096.988,-8248.591,3.102,3.091,3.084,3.088,3.101,3.091,3.07,3.075,3.0,3.018,3.082,3.041,3.114,3.094,3.081,3.117,3.022,3.088,3.073,3.054,3.1,3.037,3.054,3.056
228,229,73.691,-55.595,-94.806,-4096.889,-8244.514,3.103,3.091,3.084,3.088,3.101,3.091,3.069,3.075,3.0,3.018,3.082,3.041,3.114,3.094,3.08,3.117,3.023,3.088,3.073,3.055,3.1,3.036,3.054,3.056
231,232,73.671,-55.615,-94.773,-4097.218,-8241.614,3.103,3.091,3.084,3.088,3.101,3.092,3.07,3.075,3.0,3.018,3.082,3.042,3.114,3.094,3.08,3.117,3.022,3.087,3.073,3.054,3.1,3.037,3.053,3.056
234,235,73.668,-55.611,-94.724,-4096.716,-8237.122,3.103,3.091,3.084,3.088,3.101,3.091,3.07,3.075,3.0,3.018,3.082,3.042,3.115,3.094,3.08,3.117,3.022,3.088,3.073,3.054,3.099,3.036,3.053,3.056
237,238,73.657,-55.596,-94.682,-4095.034,-8233.143,3.103,3.091,3.084,3.088,3.101,3.091,3.07,3.075,3.0,3.018,3.082,3.042,3.115,3.094,3.08,3.116,3.022,3.088,3.073,3.054,3.099,3.036,3.053,3.057
240,241,73.679,-55.617,-94.641,-4097.76,-8229.344,3.103,3.091,3.084,3.088,3.101,3.091,3.069,3.075,3.0,3.018,3.082,3.042,3.115,3.094,3.08,3.116,3.022,3.087,3.072,3.054,3.099,3.036,3.053,3.056
243,244,73.679,-55.574,-94.596,-4094.653,-8225.098,3.103,3.091,3.084,3.087,3.101,3.091,3.069,3.075,3.0,3.018,3.082,3.043,3.115,3.094,3.08,3.116,3.022,3.087,3.072,3.054,3.099,3.036,3.053,3.056
246,247,73.713,-55.606,-94.585,-4098.902,-8224.179,3.103,3.091,3.084,3.088,3.101,3.091,3.069,3.075,3.0,3.018,3.082,3.042,3.115,3.094,3.08,3.117,3.022,3.087,3.073,3.054,3.1,3.036,3.053,3.056
249,250,73.701,-55.596,-94.518,-4097.494,-8217.92,3.103,3.091,3.084,3.087,3.101,3.091,3.069,3.075,3.0,3.018,3.082,3.043,3.115,3.095,3.081,3.117,3.022,3.087,3.072,3.054,3.099,3.036,3.053,3.056
252,253,73.685,-55.599,-94.524,-4096.86,-8218.761,3.104,3.092,3.085,3.088,3.102,3.091,3.069,3.075,3.0,3.018,3.083,3.043,3.116,3.095,3.081,3.117,3.022,3.087,3.072,3.054,3.1,3.036,3.053,3.056
255,256,73.695,-55.621,-94.488,-4099.039,-8215.393,3.103,3.091,3.085,3.087,3.101,3.091,3.069,3.075,3.0,3.018,3.082,3.043,3.115,3.094,3.08,3.117,3.021,3.087,3.072,3.054,3.098,3.036,3.053,3.056
258,259,73.674,-55.601,-94.461,-4096.365,-8213.135,3.103,3.092,3.085,3.088,3.102,3.091,3.069,3.075,3.0,3.018,3.083,3.044,3.115,3.095,3.081,3.117,3.022,3.087,3.072,3.055,3.099,3.036,3.053,3.057
261,262,73.672,-55.583,-94.399,-4094.914,-8207.004,3.103,3.092,3.084,3.087,3.101,3.09,3.069,3.075,3.0,3.018,3.082,3.042,3.116,3.095,3.081,3.117,3.022,3.087,3.072,3.054,3.099,3.036,3.054,3.055
264,265,73.672,-55.585,-94.341,-4095.05,-8201.469,3.103,3.091,3.085,3.087,3.101,3.091,3.069,3.075,3.0,3.018,3.082,3.043,3.116,3.095,3.081,3.117,3.021,3.086,3.072,3.054,3.1,3.036,3.053,3.056
267,268,73.671,-55.584,-94.271,-4094.905,-8194.545,3.103,3.092,3.085,3.087,3.101,3.09,3.069,3.075,3.0,3.018,3.082,3.043,3.116,3.095,3.081,3.117,3.022,3.087,3.071,3.054,3.099,3.036,3.054,3.056
270,271,73.673,-55.604,-94.252,-4096.533,-8192.758,3.103,3.092,3.085,3.087,3.102,3.09,3.068,3.075,3.0,3.019,3.082,3.043,3.116,3.095,3.081,3.117,3.021,3.087,3.072,3.054,3.099,3.036,3.054,3.055
273,274,73.692,-55.609,-94.203,-4097.92,-8187.922,3.103,3.091,3.085,3.087,3.101,3.09,3.068,3.074,3.0,3.018,3.082,3.043,3.115,3.094,3.081,3.117,3.021,3.086,3.072,3.054,3.099,3.035,3.054,3.055
276,277,73.642,-55.617,-94.195,-4095.722,-8187.379,3.103,3.092,3.085,3.087,3.101,3.09,3.068,3.075,3.0,3.018,3.082,3.044,3.116,3.095,3.081,3.117,3.021,3.086,3.071,3.054,3.098,3.035,3.054,3.055
279,280,73.672,-55.598,-94.192,-4096.006,-8187.238,3.104,3.092,3.085,3.087,3.101,3.091,3.068,3.075,3.0,3.018,3.082,3.044,3.116,3.095,3.08,3.117,3.021,3.086,3.071,3.054,3.099,3.035,3.054,3.056
282,283,73.713,-55.61,-94.154,-4099.2,-8183.777,3.104,3.092,3.085,3.087,3.101,3.091,3.068,3.075,3.0,3.018,3.082,3.044,3.116,3.094,3.08,3.117,3.021,3.086,3.071,3.054,3.099,3.035,3.054,3.056
285,286,73.692,-55.584,-94.121,-4096.142,-8180.71,3.105,3.092,3.085,3.087,3.101,3.091,3.068,3.075,3.0,3.019,3.082,3.045,3.116,3.094,3.08,3.117,3.021,3.086,3.071,3.054,3.099,3.036,3.055,3.056
288,289,73.713,-55.602,-94.081,-4098.559,-8176.833,3.105,3.092,3.085,3.087,3.102,3.09,3.069,3.075,3.0,3.019,3.082,3.044,3.116,3.094,3.08,3.117,3.021,3.086,3.071,3.054,3.099,3.036,3.055,3.057
291,292,73.682,-55.602,-94.04,-4096.822,-8173.017,3.105,3.093,3.085,3.087,3.102,3.091,3.068,3.075,3.0,3.019,3.082,3.045,3.116,3.094,3.081,3.117,3.021,3.086,3.07,3.054,3.099,3.036,3.055,3.057
294,295,73.684,-55.587,-93.995,-4095.88,-8168.81,3.105,3.093,3.086,3.087,3.102,3.091,3.069,3.075,3.0,3.019,3.082,3.045,3.116,3.095,3.081,3.117,3.021,3.086,3.071,3.054,3.099,3.036,3.055,3.057
297,298,73.683,-55.583,-93.96,-4095.504,-8165.578,3.105,3.093,3.086,3.087,3.102,3.091,3.069,3.075,3.0,3.019,3.083,3.046,3.116,3.095,3.081,3.117,3.021,3.086,3.071,3.055,3.1,3.036,3.056,3.057
300,301,73.562,-55.609,-94.091,-4090.666,-8175.633,3.099,3.087,3.08,3.081,3.096,3.085,3.064,3.07,3.0,3.017,3.076,3.04,3.11,3.089,3.074,3.112,3.019,3.081,3.066,3.05,3.093,3.032,3.051,3.053
303,304,73.584,-55.607,-94.194,-4091.759,-8186.846,3.101,3.089,3.082,3.083,3.098,3.088,3.065,3.071,3.0,3.017,3.077,3.041,3.112,3.091,3.077,3.113,3.019,3.083,3.068,3.051,3.095,3.033,3.053,3.054
306,307,73.646,-55.622,-94.172,-4096.378,-8185.592,3.103,3.09,3.083,3.084,3.099,3.088,3.066,3.072,3.0,3.018,3.078,3.042,3.113,3.092,3.078,3.114,3.02,3.083,3.069,3.052,3.096,3.034,3.054,3.055
309,310,73.625,-55.588,-94.109,-4092.693,-8179.938,3.103,3.091,3.084,3.085,3.1,3.089,3.067,3.073,3.0,3.018,3.079,3.043,3.114,3.093,3.079,3.115,3.02,3.084,3.069,3.053,3.097,3.034,3.054,3.056
312,313,73.657,-55.592,-94.057,-4094.737,-8175.191,3.103,3.091,3.084,3.085,3.1,3.089,3.067,3.073,3.0,3.018,3.079,3.044,3.114,3.093,3.079,3.115,3.02,3.084,3.069,3.053,3.097,3.034,3.054,3.056
315,316,73.667,-55.596,-94.009,-4095.59,-8170.856,3.104,3.092,3.085,3.085,3.1,3.09,3.067,3.073,3.0,3.018,3.08,3.044,3.115,3.093,3.079,3.116,3.02,3.084,3.07,3.053,3.097,3.035,3.055,3.056
318,319,73.649,-55.576,-93.986,-4093.149,-8168.85,3.104,3.092,3.085,3.086,3.101,3.089,3.067,3.073,3.0,3.018,3.08,3.044,3.115,3.094,3.08,3.116,3.02,3.085,3.07,3.053,3.098,3.035,3.055,3.057
321,322,73.67,-55.598,-93.951,-4095.926,-8165.664,3.104,3.092,3.085,3.086,3.1,3.09,3.067,3.073,3.0,3.018,3.08,3.045,3.115,3.093,3.079,3.116,3.02,3.084,3.069,3.053,3.098,3.035,3.055,3.057
324,325,73.669,-55.612,-93.92,-4096.882,-8162.714,3.104,3.092,3.085,3.086,3.101,3.09,3.067,3.073,3.0,3.018,3.08,3.044,3.115,3.094,3.08,3.116,3.02,3.084,3.07,3.053,3.098,3.035,3.055,3.057
327,328,73.659,-55.587,-93.871,-4094.494,-8158.188,3.105,3.093,3.085,3.086,3.101,3.09,3.067,3.074,3.0,3.019,3.08,3.045,3.115,3.094,3.08,3.117,3.02,3.084,3.07,3.054,3.099,3.035,3.055,3.058
330,331,73.689,-55.602,-93.834,-4097.241,-8154.643,3.105,3.093,3.086,3.086,3.101,3.09,3.067,3.074,3.0,3.018,3.08,3.045,3.116,3.094,3.08,3.117,3.02,3.085,3.07,3.053,3.099,3.035,3.055,3.058
333,334,73.718,-55.596,-93.789,-4098.401,-8150.311,3.105,3.093,3.086,3.086,3.102,3.09,3.067,3.074,3.0,3.019,3.08,3.046,3.115,3.094,3.08,3.117,3.02,3.085,3.07,3.054,3.098,3.035,3.056,3.058
336,337,73.694,-55.601,-93.723,-4097.457,-8143.653,3.106,3.093,3.085,3.085,3.101,3.09,3.067,3.074,3.0,3.019,3.081,3.046,3.115,3.094,3.079,3.116,3.02,3.084,3.07,3.054,3.098,3.035,3.055,3.058
339,340,73.654,-55.596,-93.669,-4094.852,-8138.567,3.106,3.093,3.086,3.086,3.101,3.09,3.067,3.074,3.0,3.019,3.081,3.047,3.116,3.094,3.08,3.117,3.02,3.084,3.07,3.054,3.098,3.035,3.056,3.059
342,343,73.654,-55.58,-93.626,-4093.665,-8134.35,3.105,3.093,3.086,3.085,3.101,3.09,3.067,3.074,3.0,3.019,3.08,3.047,3.115,3.094,3.079,3.116,3.02,3.084,3.069,3.054,3.098,3.035,3.056,3.058
345,346,73.673,-55.588,-93.588,-4095.356,-8130.723,3.106,3.093,3.086,3.085,3.101,3.09,3.067,3.074,3.0,3.019,3.08,3.047,3.116,3.094,3.08,3.117,3.02,3.084,3.069,3.054,3.098,3.035,3.056,3.058
348,349,73.694,-55.615,-93.553,-4098.47,-8127.367,3.106,3.093,3.086,3.086,3.102,3.09,3.067,3.074,3.0,3.019,3.081,3.047,3.116,3.094,3.08,3.117,3.02,3.084,3.069,3.054,3.098,3.035,3.056,3.059
351,352,73.713,-55.611,-93.511,-4099.273,-8123.287,3.106,3.093,3.086,3.086,3.101,3.09,3.067,3.074,3.0,3.019,3.081,3.047,3.116,3.094,3.08,3.117,3.02,3.084,3.069,3.054,3.098,3.035,3.057,3.059
354,355,73.682,-55.601,-93.434,-4096.75,-8115.761,3.106,3.093,3.086,3.085,3.101,3.089,3.067,3.074,3.0,3.019,3.081,3.047,3.116,3.094,3.079,3.116,3.02,3.084,3.069,3.054,3.098,3.035,3.056,3.059
357,358,73.662,-55.598,-93.428,-4095.457,-8115.171,3.106,3.093,3.087,3.085,3.102,3.09,3.067,3.074,3.0,3.019,3.081,3.047,3.116,3.094,3.08,3.117,3.02,3.084,3.069,3.054,3.098,3.035,3.057,3.059
360,361,73.671,-55.603,-93.402,-4096.318,-8112.694,3.106,3.094,3.086,3.085,3.101,3.089,3.067,3.074,3.0,3.019,3.081,3.047,3.116,3.094,3.08,3.117,3.02,3.084,3.069,3.054,3.098,3.035,3.057,3.059
363,364,73.684,-55.597,-93.361,-4096.624,-8108.906,3.106,3.093,3.086,3.085,3.102,3.089,3.067,3.074,3.0,3.019,3.081,3.047,3.116,3.094,3.08,3.117,3.02,3.084,3.069,3.054,3.098,3.035,3.057,3.059
366,367,73.683,-55.595,-93.321,-4096.447,-8105.04,3.106,3.093,3.087,3.085,3.101,3.09,3.067,3.074,3.0,3.019,3.08,3.047,3.116,3.094,3.08,3.117,3.02,3.084,3.069,3.054,3.098,3.034,3.057,3.059
369,370,73.725,-55.616,-93.503,-4100.272,-8126.03,3.108,3.095,3.088,3.086,3.103,3.09,3.067,3.074,3.0,3.019,3.082,3.049,3.118,3.095,3.082,3.119,3.02,3.084,3.069,3.055,3.1,3.036,3.058,3.061
372,373,73.694,-55.614,-93.543,-4098.424,-8130.075,3.109,3.095,3.088,3.087,3.103,3.091,3.068,3.074,3.0,3.019,3.082,3.048,3.118,3.095,3.082,3.119,3.021,3.084,3.069,3.055,3.1,3.036,3.058,3.061
375,376,73.716,-55.597,-93.483,-4098.354,-8124.124,3.109,3.095,3.088,3.087,3.103,3.09,3.068,3.074,3.0,3.019,3.082,3.049,3.118,3.095,3.082,3.118,3.02,3.084,3.069,3.055,3.1,3.036,3.058,3.061
378,379,73.705,-55.611,-93.489,-4098.813,-8124.739,3.109,3.095,3.088,3.087,3.103,3.09,3.067,3.074,3.0,3.019,3.082,3.048,3.118,3.095,3.082,3.119,3.02,3.084,3.069,3.054,3.1,3.036,3.058,3.061
381,382,73.694,-55.58,-93.404,-4095.899,-8116.598,3.109,3.096,3.088,3.087,3.104,3.09,3.067,3.074,3.0,3.019,3.082,3.049,3.118,3.096,3.082,3.119,3.021,3.084,3.069,3.055,3.1,3.036,3.058,3.061
384,385,73.756,-55.6,-93.396,-4100.841,-8115.902,3.109,3.096,3.089,3.087,3.103,3.091,3.068,3.074,3.0,3.02,3.082,3.049,3.118,3.096,3.082,3.119,3.021,3.084,3.069,3.056,3.1,3.036,3.058,3.062
387,388,73.715,-55.604,-93.358,-4098.845,-8112.22,3.109,3.096,3.089,3.087,3.103,3.091,3.067,3.074,3.0,3.02,3.081,3.05,3.118,3.096,3.082,3.119,3.021,3.084,3.069,3.056,3.1,3.036,3.059,3.061
390,391,73.727,-55.622,-93.316,-4100.812,-8108.027,3.109,3.096,3.089,3.086,3.103,3.09,3.067,3.074,3.0,3.02,3.082,3.049,3.118,3.095,3.082,3.119,3.02,3.084,3.069,3.055,3.1,3.036,3.058,3.061
393,394,73.705,-55.61,-93.298,-4098.732,-8106.248,3.109,3.096,3.089,3.086,3.103,3.091,3.067,3.074,3.0,3.02,3.082,3.049,3.118,3.095,3.082,3.119,3.02,3.084,3.069,3.055,3.099,3.036,3.059,3.061
396,397,73.706,-55.615,-93.243,-4099.153,-8101.083,3.109,3.096,3.089,3.086,3.104,3.09,3.067,3.074,3.0,3.02,3.082,3.05,3.118,3.096,3.082,3.119,3.021,3.084,3.069,3.056,3.099,3.037,3.059,3.062
399,400,73.695,-55.587,-93.211,-4096.518,-8097.952,3.109,3.096,3.089,3.087,3.104,3.09,3.067,3.074,3.0,3.02,3.082,3.049,3.118,3.096,3.082,3.119,3.021,3.084,3.068,3.056,3.1,3.036,3.059,3.062
402,403,73.76,-55.586,-93.503,-4100.023,-8123.963,3.109,3.097,3.091,3.088,3.103,3.092,3.071,3.077,3.0,3.027,3.081,3.052,3.117,3.096,3.084,3.12,3.028,3.087,3.072,3.06,3.101,3.042,3.064,3.065
405,406,73.819,-55.6,-93.395,-4104.322,-8114.665,3.11,3.099,3.092,3.089,3.104,3.094,3.072,3.078,3.0,3.027,3.082,3.053,3.119,3.098,3.086,3.121,3.028,3.088,3.072,3.062,3.103,3.042,3.065,3.066
408,409,73.798,-55.574,-93.29,-4101.259,-8105.246,3.111,3.099,3.093,3.09,3.105,3.094,3.072,3.078,3.0,3.028,3.083,3.054,3.119,3.098,3.086,3.122,3.029,3.088,3.073,3.062,3.104,3.043,3.065,3.067
411,412,73.82,-55.599,-93.244,-4104.324,-8101.336,3.112,3.1,3.093,3.09,3.106,3.095,3.073,3.079,3.0,3.028,3.084,3.054,3.12,3.099,3.087,3.123,3.029,3.088,3.074,3.062,3.104,3.043,3.065,3.068
414,415,73.819,-55.596,-93.185,-4104.073,-8095.92,3.112,3.1,3.094,3.091,3.107,3.095,3.073,3.079,3.0,3.028,3.084,3.054,3.12,3.1,3.088,3.123,3.029,3.089,3.074,3.062,3.105,3.044,3.066,3.068
417,418,73.851,-55.585,-93.135,-4105.008,-8091.281,3.112,3.1,3.094,3.091,3.107,3.095,3.073,3.079,3.0,3.028,3.084,3.054,3.121,3.1,3.088,3.123,3.029,3.089,3.074,3.062,3.104,3.043,3.066,3.068
420,421,73.86,-55.583,-93.053,-4105.354,-8083.55,3.113,3.101,3.094,3.091,3.107,3.095,3.073,3.08,3.0,3.028,3.085,3.055,3.12,3.1,3.088,3.123,3.029,3.089,3.074,3.063,3.105,3.043,3.066,3.068
423,424,73.839,-55.591,-93.008,-4104.808,-8079.067,3.112,3.101,3.095,3.091,3.107,3.095,3.073,3.08,3.0,3.028,3.085,3.054,3.121,3.1,3.088,3.124,3.029,3.089,3.074,3.063,3.105,3.043,3.066,3.068
426,427,73.87,-55.598,-92.963,-4107.014,-8074.805,3.113,3.101,3.094,3.091,3.107,3.095,3.073,3.08,3.0,3.028,3.085,3.055,3.121,3.1,3.088,3.124,3.029,3.089,3.075,3.063,3.105,3.043,3.066,3.068
429,430,73.849,-55.591,-92.901,-4105.372,-8068.949,3.113,3.101,3.095,3.091,3.108,3.095,3.073,3.08,3.0,3.028,3.085,3.055,3.121,3.1,3.088,3.124,3.029,3.089,3.075,3.063,3.105,3.044,3.066,3.068
432,433,73.869,-55.587,-92.855,-4106.165,-8064.456,3.113,3.101,3.095,3.091,3.108,3.095,3.073,3.08,3.0,3.028,3.085,3.055,3.121,3.1,3.088,3.123,3.029,3.089,3.074,3.063,3.105,3.043,3.066,3.068
435,436,73.861,-55.606,-92.81,-4107.103,-8060.152,3.113,3.101,3.095,3.091,3.108,3.096,3.073,3.08,3.0,3.029,3.086,3.055,3.121,3.1,3.088,3.124,3.029,3.088,3.075,3.063,3.105,3.044,3.066,3.068
438,439,73.827,-55.584,-92.78,-4103.539,-8057.228,3.113,3.101,3.095,3.091,3.108,3.095,3.073,3.08,3.0,3.028,3.085,3.055,3.121,3.101,3.088,3.124,3.029,3.088,3.075,3.063,3.105,3.043,3.067,3.068
441,442,73.857,-55.582,-92.728,-4105.1,-8052.057,3.113,3.101,3.095,3.091,3.108,3.095,3.073,3.08,3.0,3.029,3.086,3.055,3.121,3.1,3.088,3.124,3.029,3.088,3.075,3.063,3.106,3.044,3.066,3.068
444,445,73.878,-55.581,-92.692,-4106.249,-8048.714,3.113,3.101,3.095,3.091,3.108,3.095,3.073,3.08,3.0,3.028,3.085,3.055,3.121,3.1,3.088,3.124,3.029,3.089,3.074,3.063,3.105,3.044,3.066,3.069
447,448,73.868,-55.612,-92.66,-4107.932,-8045.627,3.113,3.101,3.095,3.091,3.108,3.095,3.073,3.08,3.0,3.028,3.086,3.055,3.121,3.1,3.087,3.124,3.029,3.088,3.074,3.063,3.105,3.044,3.066,3.068
450,451,73.857,-55.612,-92.588,-4107.322,-8038.599,3.114,3.101,3.095,3.091,3.108,3.096,3.073,3.08,3.0,3.028,3.085,3.055,3.121,3.1,3.088,3.124,3.029,3.088,3.075,3.063,3.105,3.044,3.067,3.069
453,454,73.858,-55.587,-92.593,-4105.576,-8039.115,3.113,3.101,3.095,3.091,3.108,3.095,3.073,3.08,3.0,3.028,3.085,3.055,3.121,3.1,3.088,3.123,3.028,3.088,3.074,3.063,3.105,3.043,3.067,3.068
456,457,73.858,-55.618,-92.53,-4107.841,-8033.028,3.114,3.102,3.095,3.091,3.109,3.095,3.073,3.08,3.0,3.029,3.085,3.055,3.121,3.101,3.088,3.124,3.029,3.088,3.075,3.063,3.105,3.044,3.067,3.069
459,460,73.881,-55.597,-92.507,-4107.564,-8030.85,3.113,3.102,3.095,3.091,3.108,3.095,3.073,3.08,3.0,3.029,3.085,3.056,3.121,3.1,3.088,3.124,3.029,3.088,3.074,3.064,3.105,3.044,3.067,3.069
462,463,73.809,-55.612,-92.613,-4104.683,-8042.767,3.117,3.103,3.095,3.091,3.108,3.097,3.075,3.081,3.0,3.029,3.087,3.06,3.123,3.1,3.087,3.123,3.028,3.088,3.075,3.063,3.105,3.043,3.068,3.072
465,466,73.901,-55.596,-92.753,-4108.604,-8056.724,3.12,3.104,3.095,3.09,3.109,3.097,3.076,3.081,3.0,3.029,3.089,3.065,3.127,3.102,3.087,3.123,3.028,3.088,3.075,3.063,3.104,3.043,3.068,3.075
468,469,73.893,-55.597,-92.73,-4108.265,-8054.041,3.12,3.103,3.095,3.09,3.108,3.096,3.075,3.081,3.0,3.029,3.088,3.064,3.126,3.101,3.087,3.123,3.028,3.088,3.074,3.063,3.104,3.043,3.069,3.074
471,472,73.901,-55.594,-92.722,-4108.484,-8053.054,3.119,3.103,3.095,3.09,3.108,3.097,3.075,3.081,3.0,3.029,3.088,3.063,3.126,3.101,3.087,3.123,3.028,3.088,3.074,3.063,3.104,3.043,3.069,3.074
474,475,73.871,-55.59,-92.66,-4106.471,-8046.927,3.119,3.103,3.095,3.09,3.108,3.096,3.075,3.081,3.0,3.029,3.088,3.064,3.126,3.101,3.087,3.123,3.028,3.088,3.074,3.063,3.104,3.043,3.069,3.074
477,478,73.891,-55.589,-92.642,-4107.548,-8044.881,3.118,3.103,3.095,3.09,3.108,3.096,3.074,3.081,3.0,3.029,3.088,3.063,3.126,3.102,3.087,3.123,3.028,3.088,3.074,3.063,3.104,3.043,3.069,3.074
480,481,73.871,-55.593,-92.593,-4106.684,-8040.032,3.117,3.103,3.095,3.09,3.108,3.096,3.074,3.08,3.0,3.029,3.088,3.062,3.125,3.101,3.087,3.123,3.028,3.087,3.074,3.063,3.104,3.043,3.069,3.073
483,484,73.882,-55.586,-92.272,-4106.807,-8007.779,3.116,3.102,3.094,3.089,3.108,3.095,3.074,3.081,3.0,3.03,3.087,3.061,3.124,3.1,3.086,3.122,3.028,3.087,3.074,3.063,3.103,3.043,3.069,3.072
486,487,73.83,-55.593,-92.214,-4104.412,-8002.495,3.116,3.102,3.095,3.089,3.108,3.096,3.074,3.081,3.0,3.03,3.087,3.061,3.124,3.1,3.086,3.123,3.029,3.088,3.074,3.063,3.104,3.043,3.069,3.072
489,490,73.891,-55.606,-92.16,-4108.734,-7997.178,3.117,3.103,3.095,3.089,3.108,3.095,3.074,3.081,3.0,3.03,3.087,3.061,3.124,3.101,3.086,3.123,3.029,3.087,3.074,3.063,3.104,3.043,3.069,3.073
492,493,73.841,-55.586,-92.115,-4104.504,-7992.909,3.116,3.102,3.095,3.089,3.108,3.095,3.073,3.08,3.0,3.03,3.087,3.06,3.124,3.101,3.086,3.123,3.028,3.087,3.074,3.063,3.104,3.043,3.069,3.072
495,496,73.862,-55.591,-92.097,-4106.023,-7991.149,3.116,3.102,3.095,3.089,3.108,3.095,3.073,3.08,3.0,3.029,3.086,3.059,3.124,3.1,3.086,3.123,3.028,3.087,3.073,3.063,3.104,3.042,3.069,3.071
498,499,73.841,-55.587,-92.012,-4104.575,-7982.985,3.115,3.102,3.095,3.089,3.108,3.095,3.072,3.08,3.0,3.029,3.086,3.059,3.123,3.1,3.086,3.123,3.028,3.087,3.073,3.063,3.104,3.043,3.069,3.071
501,502,73.81,-55.61,-92.477,-4104.544,-8030.04,3.114,3.101,3.093,3.087,3.105,3.093,3.07,3.077,3.0,3.027,3.083,3.057,3.122,3.1,3.086,3.122,3.028,3.086,3.072,3.061,3.103,3.042,3.067,3.071
504,505,73.821,-55.596,-92.444,-4104.146,-8026.914,3.114,3.101,3.094,3.088,3.106,3.093,3.071,3.078,3.0,3.027,3.083,3.057,3.122,3.1,3.087,3.123,3.028,3.086,3.072,3.063,3.103,3.043,3.067,3.07
507,508,73.842,-55.599,-92.419,-4105.509,-8024.682,3.114,3.101,3.094,3.088,3.107,3.094,3.071,3.078,3.0,3.028,3.083,3.057,3.123,3.1,3.087,3.123,3.029,3.087,3.073,3.063,3.104,3.043,3.068,3.071
510,511,73.863,-55.615,-92.388,-4107.895,-8021.863,3.114,3.102,3.095,3.089,3.106,3.094,3.071,3.078,3.0,3.027,3.083,3.057,3.123,3.101,3.087,3.123,3.029,3.086,3.073,3.063,3.104,3.043,3.068,3.071
513,514,73.843,-55.607,-92.34,-4106.136,-8017.215,3.114,3.101,3.095,3.089,3.107,3.094,3.071,3.078,3.0,3.028,3.083,3.056,3.122,3.101,3.088,3.123,3.029,3.087,3.073,3.063,3.105,3.044,3.068,3.071
516,517,73.841,-55.623,-92.32,-4107.28,-8015.444,3.114,3.102,3.095,3.089,3.107,3.094,3.071,3.079,3.0,3.028,3.083,3.057,3.123,3.101,3.088,3.123,3.029,3.086,3.073,3.064,3.105,3.044,3.068,3.071
519,520,73.853,-55.597,-92.275,-4106.006,-8011.136,3.114,3.102,3.095,3.089,3.107,3.094,3.071,3.079,3.0,3.028,3.083,3.056,3.123,3.101,3.088,3.123,3.029,3.086,3.073,3.064,3.105,3.043,3.069,3.071
522,523,73.833,-55.609,-92.23,-4105.782,-8006.64,3.114,3.102,3.095,3.088,3.107,3.094,3.07,3.079,3.0,3.028,3.083,3.056,3.122,3.1,3.088,3.123,3.029,3.086,3.073,3.063,3.105,3.044,3.068,3.071
525,526,73.841,-55.578,-92.175,-4103.923,-8001.401,3.114,3.102,3.096,3.089,3.108,3.094,3.071,3.079,3.0,3.028,3.084,3.056,3.122,3.101,3.088,3.123,3.029,3.086,3.073,3.064,3.105,3.044,3.069,3.071
528,529,73.864,-55.6,-92.145,-4106.865,-7998.563,3.114,3.102,3.096,3.089,3.107,3.094,3.071,3.079,3.0,3.028,3.083,3.056,3.123,3.101,3.088,3.124,3.029,3.086,3.073,3.064,3.105,3.044,3.069,3.071
531,532,73.843,-55.601,-92.123,-4105.744,-7996.43,3.114,3.103,3.096,3.089,3.108,3.094,3.071,3.079,3.0,3.028,3.084,3.056,3.122,3.101,3.088,3.124,3.029,3.086,3.073,3.064,3.105,3.045,3.069,3.071
534,535,73.844,-55.603,-92.217,-4105.947,-8006.162,3.113,3.102,3.096,3.089,3.107,3.094,3.07,3.079,3.0,3.028,3.083,3.054,3.122,3.101,3.089,3.124,3.029,3.085,3.073,3.064,3.105,3.044,3.069,3.07
537,538,73.854,-55.596,-92.181,-4106.014,-8002.504,3.113,3.102,3.096,3.089,3.108,3.093,3.07,3.079,3.0,3.029,3.083,3.054,3.121,3.101,3.089,3.124,3.029,3.086,3.073,3.064,3.106,3.044,3.069,3.07
540,541,73.854,-55.597,-92.136,-4106.053,-7998.038,3.113,3.102,3.096,3.089,3.108,3.093,3.07,3.079,3.0,3.028,3.083,3.054,3.121,3.101,3.089,3.124,3.029,3.085,3.072,3.064,3.106,3.044,3.069,3.07
543,544,73.846,-55.591,-91.906,-4105.212,-7974.818,3.113,3.102,3.096,3.089,3.107,3.093,3.07,3.079,3.0,3.029,3.083,3.054,3.121,3.101,3.088,3.124,3.029,3.085,3.073,3.065,3.105,3.044,3.07,3.07
546,547,73.833,-55.605,-91.878,-4105.507,-7972.316,3.113,3.102,3.096,3.089,3.108,3.093,3.07,3.079,3.0,3.029,3.083,3.054,3.121,3.101,3.088,3.124,3.029,3.086,3.072,3.064,3.106,3.044,3.07,3.07
549,550,73.855,-55.602,-91.818,-4106.468,-7966.651,3.113,3.102,3.096,3.089,3.108,3.094,3.07,3.079,3.0,3.029,3.083,3.054,3.121,3.101,3.089,3.124,3.029,3.085,3.072,3.065,3.106,3.044,3.07,3.07
552,553,73.876,-55.605,-91.762,-4107.85,-7961.337,3.113,3.102,3.097,3.089,3.108,3.093,3.07,3.079,3.0,3.029,3.083,3.054,3.121,3.101,3.089,3.124,3.029,3.085,3.073,3.064,3.106,3.043,3.07,3.07
555,556,73.845,-55.605,-91.714,-4106.149,-7956.708,3.113,3.103,3.096,3.089,3.108,3.093,3.07,3.079,3.0,3.029,3.083,3.054,3.121,3.101,3.088,3.124,3.029,3.085,3.072,3.065,3.106,3.044,3.069,3.07
558,559,73.825,-55.619,-91.676,-4106.036,-7953.044,3.113,3.103,3.097,3.09,3.109,3.093,3.07,3.079,3.0,3.029,3.083,3.054,3.121,3.101,3.089,3.124,3.029,3.085,3.072,3.065,3.106,3.045,3.07,3.07
561,562,73.854,-55.593,-91.61,-4105.771,-7946.68,3.113,3.103,3.096,3.089,3.109,3.093,3.07,3.079,3.0,3.029,3.083,3.054,3.121,3.101,3.089,3.124,3.029,3.085,3.072,3.065,3.106,3.044,3.069,3.07
564,565,73.803,-55.6,-91.584,-4103.399,-7944.105,3.113,3.103,3.097,3.089,3.109,3.093,3.07,3.079,3.0,3.029,3.083,3.053,3.12,3.101,3.089,3.124,3.029,3.085,3.072,3.064,3.106,3.044,3.07,3.07
567,568,73.845,-55.598,-91.548,-4105.618,-7940.673,3.113,3.103,3.096,3.089,3.108,3.093,3.069,3.079,3.0,3.029,3.082,3.054,3.12,3.101,3.088,3.124,3.029,3.084,3.071,3.065,3.105,3.044,3.07,3.07
570,571,73.845,-55.596,-91.462,-4105.486,-7932.428,3.113,3.103,3.097,3.089,3.108,3.093,3.07,3.079,3.0,3.029,3.083,3.054,3.12,3.1,3.088,3.124,3.029,3.084,3.072,3.064,3.106,3.044,3.07,3.07
573,574,73.823,-55.596,-91.477,-4104.274,-7933.691,3.113,3.103,3.097,3.089,3.109,3.093,3.07,3.079,3.0,3.029,3.083,3.054,3.121,3.101,3.089,3.125,3.029,3.084,3.072,3.064,3.106,3.044,3.07,3.07
576,577,73.994,-55.617,-90.574,-4115.316,-7852.408,3.122,3.11,3.102,3.093,3.114,3.099,3.075,3.084,3.0,3.032,3.089,3.063,3.129,3.107,3.095,3.13,3.032,3.091,3.078,3.069,3.111,3.048,3.075,3.078
579,580,73.915,-55.606,-91.573,-4110.136,-7947.591,3.119,3.107,3.1,3.091,3.111,3.097,3.073,3.082,3.0,3.03,3.086,3.06,3.126,3.105,3.092,3.128,3.03,3.088,3.076,3.067,3.108,3.045,3.073,3.076
582,583,73.875,-55.588,-91.563,-4106.527,-7945.661,3.118,3.106,3.099,3.09,3.111,3.095,3.072,3.081,3.0,3.03,3.085,3.058,3.124,3.103,3.091,3.126,3.03,3.087,3.074,3.066,3.108,3.045,3.072,3.074
585,586,73.885,-55.622,-91.538,-4109.639,-7942.979,3.117,3.105,3.098,3.09,3.11,3.095,3.071,3.08,3.0,3.029,3.085,3.058,3.123,3.103,3.09,3.126,3.029,3.086,3.074,3.065,3.107,3.045,3.071,3.073
588,589,73.906,-55.59,-91.509,-4108.381,-7939.683,3.116,3.104,3.097,3.089,3.109,3.094,3.071,3.08,3.0,3.029,3.084,3.057,3.122,3.102,3.09,3.125,3.029,3.085,3.073,3.065,3.106,3.044,3.071,3.072
591,592,73.864,-55.593,-91.476,-4106.314,-7936.312,3.116,3.104,3.098,3.089,3.109,3.094,3.071,3.08,3.0,3.029,3.084,3.057,3.123,3.102,3.089,3.125,3.029,3.085,3.073,3.065,3.106,3.044,3.071,3.072
594,595,73.854,-55.584,-91.447,-4105.118,-7933.138,3.115,3.104,3.097,3.089,3.109,3.094,3.07,3.079,3.0,3.029,3.083,3.057,3.122,3.101,3.089,3.125,3.029,3.084,3.072,3.065,3.106,3.044,3.071,3.072
597,598,73.844,-55.587,-91.417,-4104.719,-7930.084,3.115,3.104,3.097,3.089,3.108,3.093,3.07,3.079,3.0,3.029,3.083,3.056,3.121,3.101,3.089,3.124,3.029,3.084,3.072,3.065,3.105,3.044,3.071,3.072
600,601,73.825,-55.599,-91.503,-4104.566,-7934.02,3.111,3.102,3.096,3.087,3.105,3.093,3.071,3.079,3.0,3.032,3.08,3.055,3.118,3.099,3.087,3.124,3.032,3.086,3.072,3.067,3.104,3.046,3.074,3.071
603,604,73.856,-55.616,-91.565,-4107.575,-7940.591,3.112,3.103,3.097,3.088,3.106,3.093,3.071,3.079,3.0,3.032,3.08,3.055,3.118,3.1,3.088,3.124,3.032,3.085,3.072,3.067,3.105,3.047,3.073,3.072
606,607,73.826,-55.604,-91.494,-4104.978,-7934.755,3.112,3.103,3.097,3.089,3.107,3.094,3.071,3.08,3.0,3.032,3.081,3.055,3.118,3.101,3.089,3.125,3.033,3.085,3.072,3.068,3.106,3.047,3.073,3.072
609,610,73.845,-55.612,-91.403,-4106.636,-7926.941,3.113,3.104,3.098,3.089,3.107,3.094,3.071,3.08,3.0,3.032,3.081,3.056,3.119,3.101,3.09,3.125,3.033,3.086,3.073,3.067,3.106,3.047,3.074,3.072
612,613,73.866,-55.608,-91.326,-4107.537,-7920.022,3.113,3.104,3.098,3.089,3.107,3.094,3.071,3.08,3.0,3.032,3.081,3.056,3.12,3.101,3.09,3.125,3.033,3.086,3.072,3.067,3.106,3.047,3.073,3.072
615,616,73.867,-55.606,-91.309,-4107.469,-7918.773,3.113,3.104,3.099,3.09,3.108,3.094,3.071,3.08,3.0,3.032,3.082,3.056,3.12,3.101,3.09,3.125,3.033,3.086,3.073,3.067,3.107,3.047,3.073,3.072
618,619,73.876,-55.594,-91.246,-4107.048,-7912.982,3.114,3.105,3.099,3.09,3.109,3.094,3.071,3.081,3.0,3.033,3.082,3.056,3.12,3.102,3.09,3.126,3.033,3.086,3.073,3.068,3.107,3.048,3.073,3.073
621,622,73.928,-55.583,-91.14,-4109.165,-7903.1,3.114,3.105,3.099,3.09,3.109,3.095,3.071,3.081,3.0,3.032,3.083,3.057,3.12,3.102,3.091,3.126,3.032,3.086,3.073,3.067,3.107,3.047,3.073,3.073
624,625,73.897,-55.595,-91.268,-4108.335,-7912.313,3.114,3.104,3.098,3.089,3.108,3.095,3.073,3.081,3.0,3.034,3.083,3.058,3.12,3.101,3.088,3.124,3.033,3.085,3.073,3.069,3.105,3.048,3.075,3.074
627,628,73.877,-55.602,-91.37,-4107.69,-7922.193,3.113,3.103,3.097,3.087,3.106,3.093,3.072,3.079,3.0,3.033,3.081,3.058,3.119,3.1,3.087,3.122,3.032,3.084,3.071,3.067,3.104,3.047,3.073,3.073
630,631,73.846,-55.621,-91.31,-4107.368,-7917.281,3.113,3.103,3.097,3.087,3.105,3.092,3.071,3.079,3.0,3.032,3.081,3.057,3.119,3.099,3.087,3.122,3.031,3.084,3.071,3.066,3.104,3.046,3.073,3.072
633,634,73.826,-55.584,-91.24,-4103.542,-7911.04,3.113,3.103,3.097,3.087,3.106,3.092,3.07,3.079,3.0,3.032,3.081,3.057,3.119,3.1,3.087,3.123,3.031,3.084,3.071,3.066,3.104,3.045,3.072,3.072
636,637,73.837,-55.605,-91.15,-4105.725,-7902.684,3.114,3.104,3.097,3.087,3.107,3.092,3.07,3.079,3.0,3.031,3.081,3.057,3.119,3.1,3.088,3.123,3.031,3.084,3.071,3.066,3.105,3.046,3.072,3.073
639,640,73.846,-55.584,-91.068,-4104.633,-7895.301,3.114,3.104,3.098,3.088,3.107,3.093,3.07,3.08,3.0,3.032,3.082,3.058,3.12,3.1,3.089,3.124,3.031,3.084,3.071,3.066,3.105,3.046,3.073,3.073
642,643,73.878,-55.604,-91.031,-4107.873,-7891.9,3.114,3.105,3.098,3.088,3.108,3.093,3.071,3.08,3.0,3.032,3.082,3.058,3.12,3.101,3.089,3.124,3.031,3.084,3.072,3.067,3.105,3.047,3.073,3.074
645,646,73.836,-55.604,-90.991,-4105.575,-7888.066,3.115,3.105,3.099,3.089,3.108,3.093,3.071,3.08,3.0,3.032,3.082,3.057,3.12,3.101,3.089,3.125,3.032,3.084,3.072,3.067,3.106,3.046,3.074,3.074
648,649,73.857,-55.595,-90.944,-4106.079,-7883.592,3.114,3.105,3.099,3.089,3.108,3.094,3.07,3.079,3.0,3.032,3.082,3.057,3.12,3.101,3.09,3.125,3.032,3.084,3.071,3.067,3.106,3.047,3.073,3.073
651,652,73.907,-55.591,-90.874,-4108.579,-7877.023,3.115,3.105,3.099,3.089,3.109,3.094,3.07,3.08,3.0,3.033,3.083,3.056,3.12,3.102,3.09,3.125,3.032,3.085,3.072,3.067,3.107,3.047,3.074,3.073
654,655,73.838,-55.591,-90.783,-4104.701,-7868.446,3.115,3.105,3.099,3.089,3.109,3.094,3.07,3.08,3.0,3.033,3.082,3.056,3.12,3.102,3.09,3.126,3.032,3.084,3.072,3.067,3.107,3.047,3.074,3.073
657,658,73.867,-55.58,-90.796,-4105.539,-7869.731,3.115,3.106,3.099,3.089,3.109,3.094,3.071,3.08,3.0,3.032,3.083,3.056,3.12,3.102,3.09,3.126,3.032,3.084,3.072,3.068,3.107,3.047,3.074,3.073
660,661,73.88,-55.614,-90.741,-4108.771,-7864.565,3.115,3.106,3.1,3.09,3.109,3.094,3.07,3.081,3.0,3.032,3.083,3.056,3.12,3.102,3.091,3.126,3.032,3.084,3.072,3.067,3.107,3.047,3.074,3.073
663,664,73.889,-55.607,-90.691,-4108.759,-7859.815,3.115,3.106,3.1,3.09,3.11,3.094,3.071,3.081,3.0,3.033,3.083,3.057,3.121,3.102,3.091,3.126,3.032,3.084,3.073,3.067,3.107,3.047,3.074,3.073
666,667,73.899,-55.603,-90.676,-4108.999,-7858.454,3.115,3.106,3.1,3.09,3.11,3.094,3.07,3.081,3.0,3.033,3.083,3.057,3.121,3.103,3.091,3.126,3.032,3.084,3.072,3.068,3.107,3.047,3.075,3.073
669,670,73.9,-55.6,-90.632,-4108.812,-7854.188,3.115,3.106,3.1,3.09,3.11,3.094,3.071,3.081,3.0,3.033,3.083,3.057,3.121,3.103,3.091,3.126,3.032,3.084,3.072,3.068,3.108,3.047,3.074,3.072
672,673,73.869,-55.604,-90.585,-4107.402,-7849.675,3.115,3.106,3.1,3.09,3.11,3.094,3.07,3.081,3.0,3.033,3.083,3.057,3.121,3.103,3.091,3.126,3.032,3.084,3.072,3.068,3.107,3.047,3.074,3.073
675,676,73.85,-55.581,-90.561,-4104.603,-7847.282,3.115,3.106,3.1,3.09,3.11,3.094,3.07,3.081,3.0,3.033,3.083,3.057,3.121,3.103,3.09,3.126,3.032,3.084,3.072,3.068,3.107,3.046,3.074,3.073
678,679,73.898,-55.584,-90.509,-4107.543,-7842.281,3.115,3.106,3.1,3.09,3.11,3.094,3.07,3.081,3.0,3.033,3.083,3.057,3.121,3.103,3.091,3.126,3.032,3.084,3.072,3.068,3.107,3.047,3.074,3.073
681,682,73.9,-55.602,-90.472,-4108.966,-7838.763,3.115,3.106,3.101,3.09,3.11,3.094,3.07,3.081,3.0,3.034,3.084,3.057,3.121,3.103,3.091,3.126,3.032,3.084,3.072,3.068,3.108,3.047,3.075,3.073
684,685,73.9,-55.601,-90.453,-4108.899,-7836.885,3.115,3.106,3.1,3.09,3.11,3.094,3.071,3.081,3.0,3.033,3.084,3.057,3.121,3.103,3.091,3.126,3.032,3.083,3.072,3.068,3.107,3.047,3.075,3.074
687,688,73.879,-55.591,-90.399,-4107.001,-7831.721,3.115,3.107,3.1,3.09,3.111,3.094,3.07,3.081,3.0,3.033,3.084,3.057,3.121,3.103,3.091,3.126,3.032,3.083,3.072,3.068,3.108,3.048,3.075,3.074
690,691,73.869,-55.596,-90.324,-4106.791,-7824.433,3.115,3.106,3.101,3.09,3.111,3.094,3.07,3.081,3.0,3.034,3.084,3.057,3.12,3.103,3.091,3.126,3.032,3.083,3.072,3.068,3.108,3.047,3.075,3.073
693,694,73.961,-55.594,-90.963,-4111.754,-7885.163,3.119,3.109,3.103,3.092,3.111,3.099,3.077,3.084,3.0,3.038,3.086,3.064,3.124,3.105,3.093,3.129,3.037,3.088,3.075,3.074,3.11,3.052,3.08,3.079
696,697,73.918,-55.6,-90.86,-4109.831,-7875.589,3.117,3.107,3.101,3.089,3.108,3.095,3.074,3.081,3.0,3.036,3.083,3.062,3.122,3.102,3.09,3.126,3.035,3.085,3.073,3.071,3.107,3.05,3.077,3.077
699,700,73.87,-55.604,-90.876,-4107.455,-7877.07,3.115,3.105,3.099,3.088,3.106,3.094,3.071,3.08,3.0,3.034,3.082,3.06,3.12,3.101,3.09,3.124,3.033,3.084,3.071,3.068,3.106,3.048,3.075,3.075